accel_x,accel_y,accel_z,gyro_x,gyro_y,gyro_z,pitch,yaw,roll
-0.19142580799999998,1.6941184007999999,9.7244310464,0.1265363707695889,-0.026179938779914945,0.011999138607461015,0.19713618239329272,0.00023998277214922032,0.024700012179185476
0.32542387359999997,-1.0815558152,10.509276859199998,-0.11126473981463851,0.015271630954950384,0.007635815477475192,-0.11721815468287781,0.00015271630954950385,-0.03746692579749915
-0.12442677519999999,1.5409777543999998,9.9445707256,0.12544553998709243,-0.017453292519943295,0.008726646259971648,0.17582410866137824,0.00017453292519943296,0.016626645202390187
0.3445664544,0.8805587167999999,10.097711372,-0.12217304763960307,0.014180800172453928,0.009817477042468103,0.09995397602150934,0.00019634954084936208,-0.04133409546183073
-0.22013967919999997,1.7706887239999998,9.705288465599999,0.12871803233458182,-0.017453292519943295,0.01090830782496456,0.2064509059444362,0.0002181661564992912,0.028088713938613865
0.3062812928,-0.9954142015999999,10.394421374399998,-0.04036073895236887,0.020725784867432664,0.009817477042468103,-0.10899792048729215,0.00019634954084936208,-0.03439313349956297
0.37328032559999996,0.7274180703999998,10.269994599199999,0.06872233929727672,-0.0272707695624114,0.011999138607461015,0.08049474207477217,0.00023998277214922032,-0.04018100876527808
-0.0669990328,1.4452648504,10.0115697584,0.09599310885968812,0.003272492347489368,0.00545415391248228,0.1643529352085431,0.0001090830782496456,0.00947132670868683
0.39242290639999994,-1.2346964615999998,10.604989763199999,-0.09272061651219876,0.019634954084936207,0.011999138607461015,-0.13243155975578388,0.00023998277214922032,-0.04391688877857211
0.4019941968,0.6891329088,10.269994599199999,0.0916297857297023,-0.026179938779914945,0.014180800172453928,0.0762645292616451,0.0002836160034490786,-0.04293478752185748
-0.12442677519999999,-0.2009970984,10.164710404799997,0.07308566242726255,0.003272492347489368,0.007635815477475192,-0.0225922543173385,0.00015271630954950385,0.015456252554508746
0.38285161599999995,0.5072783912,10.3274223416,-0.04908738521234052,-0.01090830782496456,0.00545415391248228,0.056027858263698514,0.0001090830782496456,-0.04337223617026009
-0.028713871199999998,1.4452648504,9.9828558872,0.11562806294462433,-0.02181661564992912,0.007635815477475192,0.16432725936987674,0.00015271630954950385,0.005528311104334936
0.4019941968,-1.3208380752,10.6432749248,-0.12544553998709243,0.020725784867432664,0.01090830782496456,-0.14107934375471914,0.0002181661564992912,-0.04539013554437856
-0.09571290399999999,1.6558332392,9.848857821600001,0.1189005552921137,-0.019634954084936207,0.013089969389957472,0.1904864979733316,0.00026179938779914946,0.013312193468968912
-0.1531406464,-0.09571290399999999,10.030712339199999,0.006544984694978736,0.018544123302439753,0.009817477042468103,-0.010570512414424138,0.00019634954084936208,0.017621020911949305
0.45942193919999996,0.28713871199999996,10.336993631999999,0.018544123302439753,-0.02181661564992912,0.01090830782496456,0.031395199757153165,0.0002181661564992912,-0.050513024083179536
-0.0095712904,-0.29671000239999995,10.3752787936,0.12108221685710661,-0.013089969389957472,0.008726646259971648,-0.03301828293691514,0.00017453292519943296,0.003429896845984955
0.41156548719999997,-1.3495519463999999,10.585847182399998,-0.11344640137963143,0.009817477042468103,0.006544984694978736,-0.14511245361591943,0.00013089969389957473,-0.04639583773718865
-0.047856451999999994,1.7132609816,9.8010013696,0.1090830782496456,-0.013089969389957472,0.013089969389957472,0.19805117845278497,0.00026179938779914946,0.007649700597803262
-0.23928225999999997,0.12442677519999999,9.9158568544,-0.05235987755982989,0.02399827721492203,0.007635815477475192,0.014848861275877593,0.00015271630954950385,0.02661860847873689
0.5168496816,0.22013967919999997,10.432706535999998,-0.07853981633974483,-0.002181661564992912,0.004363323129985824,0.024133521959565345,8.726646259971648e-05,-0.058250531186509934
-0.10528419439999999,-0.12442677519999999,10.1742816952,0.09053895494720585,0.001090830782496456,0.009817477042468103,-0.013991940574343819,0.00019634954084936208,0.013631270180229698
0.37328032559999996,-1.3112667848,10.5667046016,-0.09381144729469522,0.025089107997418487,0.007635815477475192,-0.1409864684877182,0.00015271630954950385,-0.04199483833202571
-0.028713871199999998,1.7706887239999998,9.676574594399998,0.1090830782496456,-0.028361600344907856,0.01090830782496456,0.2068374388685349,0.0002181661564992912,0.005482823703442394
0.23928225999999997,-1.1581261384,10.384850083999998,-0.0916297857297023,0.025089107997418487,0.01090830782496456,-0.12677574024354016,0.0002181661564992912,-0.028032270223083106
0.42113677759999996,0.18185451759999996,10.2795658896,-0.025089107997418487,-0.011999138607461015,0.011999138607461015,0.02003495216609837,0.00023998277214922032,-0.047404438241018504
0.0669990328,1.6654045296,9.9445707256,-0.014180800172453928,-0.016362461737446838,0.011999138607461015,0.18981986862277628,0.00023998277214922032,-0.007892112531221247
0.5168496816,-0.0191425808,10.4422778264,-0.11344640137963143,0.022907446432425576,0.008726646259971648,-0.0016516818897563737,0.00017453292519943296,-0.05889530078606431
0.11485548479999999,1.5026925928,9.9732845968,0.12108221685710661,-0.018544123302439753,0.007635815477475192,0.17100464246251335,0.00015271630954950385,-0.01067565640425475
0.3541377448,-1.387837108,10.576275891999998,-0.02181661564992912,0.02181661564992912,0.009817477042468103,-0.149087142044226,0.00019634954084936208,-0.03845751827968351
0.49770710079999997,0.0,10.2987084704,-0.11235557059713497,0.008726646259971648,0.008726646259971648,0.0001710422666954443,0.00017453292519943296,-0.05753793720709432
-0.23928225999999997,0.45942193919999996,9.906285564,0.1189005552921137,-0.016362461737446838,0.007635815477475192,0.05278515548060503,0.00015271630954950385,0.02997448922561185
0.5168496816,-0.12442677519999999,10.3657075032,-0.08944812416470939,0.008726646259971648,0.008726646259971648,-0.013583516591742688,0.00017453292519943296,-0.058838862638375504
0.12442677519999999,1.5314064639999998,9.954142015999999,0.0818123086872342,-0.022907446432425576,0.011999138607461015,0.1744742593010288,0.00023998277214922032,-0.012553140217320343
0.33499516399999996,-1.3686945272,10.5475620208,-0.07963064712224129,0.026179938779914945,0.00545415391248228,-0.14735923971513143,0.0001090830782496456,-0.03764100700276287
0.0191425808,0.028713871199999998,10.2508520184,-0.06326818538479445,-0.004363323129985824,0.007635815477475192,0.003124318063344664,0.00015271630954950385,-0.0033799439455803647
-0.2679961312,0.5647061335999999,9.8967142736,0.11999138607461016,-0.03381575425739013,0.009817477042468103,0.0646522867794068,0.00019634954084936208,0.03332449053012368
0.45942193919999996,-0.047856451999999994,10.3082797608,-0.10035643198967395,0.020725784867432664,0.01090830782496456,-0.004913678784249132,0.0002181661564992912,-0.05300410906776565
0.0861416136,1.6271193679999998,9.906285564,0.12435470920459599,-0.02399827721492203,0.008726646259971648,0.18608192397993975,0.00017453292519943296,-0.00739513653859317
-0.46899322959999995,0.1722832272,10.260423308799998,0.009817477042468103,0.018544123302439753,0.00545415391248228,0.01960277683307004,0.0001090830782496456,0.05252722742013401
0.32542387359999997,0.5264209719999999,9.858429112,0.013089969389957472,-0.022907446432425576,0.014180800172453928,0.060682623012913293,0.0002836160034490786,-0.03750229183193967
-0.23928225999999997,0.7944171031999999,9.772287498399999,0.09381144729469522,-0.0272707695624114,0.014180800172453928,0.09241584188872325,0.0002836160034490786,0.029799555659137538
0.3158525832,-0.22013967919999997,10.5188481496,-0.044724062082354694,0.011999138607461015,0.004363323129985824,-0.023743171500957512,8.726646259971648e-05,-0.03526747815996872
0.14356935599999998,0.861416136,10.6337036344,0.025089107997418487,-0.016362461737446838,0.00545415391248228,0.09230548076902076,0.0001090830782496456,-0.014928214679888318
0.14356935599999998,-0.6412764567999999,10.0402836296,-0.026179938779914945,0.013089969389957472,0.011999138607461015,-0.07283418808478587,0.00023998277214922032,-0.016864524752944633
0.2679961312,0.38285161599999995,10.164710404799997,-0.039269908169872414,-0.011999138607461015,0.007635815477475192,0.04290508701624632,0.00015271630954950385,-0.030953763737258586
-0.16271193679999998,0.6029912951999999,9.839286531199999,0.06981317007977318,-0.006544984694978736,0.008726646259971648,0.0700103432600404,0.00017453292519943296,0.020281101069126117
0.38285161599999995,-0.24885355039999998,10.863414604,-0.050178215994836975,-0.002181661564992912,0.007635815477475192,-0.026288219177776264,0.00015271630954950385,-0.041340897678472786
-0.0191425808,0.2775674216,9.954142015999999,0.04799655442984406,0.0,0.01090830782496456,0.03194513754761095,0.0002181661564992912,0.0031435573410096007
0.2679961312,0.2584248408,10.212566856799999,-0.0272707695624114,-0.007635815477475192,0.008726646259971648,0.028841078105050454,0.00017453292519943296,-0.03058887814396002
-0.10528419439999999,0.6699903279999999,9.8010013696,0.05999569303730508,-0.018544123302439753,0.011999138607461015,0.07784893123063275,0.00023998277214922032,0.0134564244680065
-0.23928225999999997,-0.23928225999999997,9.925428144799998,-0.004363323129985824,0.015271630954950384,0.008726646259971648,-0.02732106338099613,0.00017453292519943296,0.027526846389793608
0.1531406464,0.0191425808,10.7102739576,-0.022907446432425576,-0.004363323129985824,0.016362461737446838,0.0019625831920562203,0.00032724923474893676,-0.016832695363291305
0.0191425808,0.5455635528,9.494720076799998,0.02399827721492203,-0.006544984694978736,0.011999138607461015,0.06564333790718453,0.00023998277214922032,-0.001836139877220784
0.9188438783999999,0.3062812928,10.853843313599999,-0.0272707695624114,-0.013089969389957472,0.008726646259971648,0.032071100044461315,0.00017453292519943296,-0.0972741569448387
-0.19142580799999998,0.8422735551999999,10.461420407199999,0.044724062082354694,-0.01090830782496456,0.011999138607461015,0.09184797631097016,0.00023998277214922032,0.02177490570951416
-0.0669990328,-0.41156548719999997,10.2795658896,-0.007635815477475192,0.01090830782496456,0.006544984694978736,-0.04564100820010759,0.00013089969389957473,0.007312977178162455
0.19142580799999998,0.9092725879999999,10.0402836296,0.03599741582238305,-0.008726646259971648,0.007635815477475192,0.10332354739045635,0.00015271630954950385,-0.02105056173374014
0.1531406464,-0.3158525832,10.4231352456,-0.02399827721492203,0.003272492347489368,0.004363323129985824,-0.03464995092855702,8.726646259971648e-05,-0.01729765717420038
-0.0382851616,0.5934200047999999,10.748559119199998,-0.008726646259971648,-0.011999138607461015,0.013089969389957472,0.06296580827184173,0.00026179938779914946,0.0039043569759653167
0.1339980656,0.6317051664,9.9349994352,0.04254240051736178,-0.01090830782496456,0.01090830782496456,0.07254992872392409,0.0002181661564992912,-0.01458959831408022
0.24885355039999998,-0.23928225999999997,10.5475620208,0.00545415391248228,0.003272492347489368,0.007635815477475192,-0.0259276710131425,0.00015271630954950385,-0.026917254100067844
0.18185451759999996,0.44027935839999993,10.7581304096,0.011999138607461015,-0.003272492347489368,0.011999138607461015,0.04680660462267847,0.00023998277214922032,-0.01911723487855135
-0.19142580799999998,0.47856451999999994,10.021141048799999,0.032724923474893676,0.0,0.011999138607461015,0.05468221873230462,0.00023998277214922032,0.02250334293154996
0.1531406464,-0.32542387359999997,10.585847182399998,0.003272492347489368,0.007635815477475192,0.00545415391248228,-0.0350663089223272,0.0001090830782496456,-0.016504317634148294
-0.1722832272,0.5264209719999999,10.7581304096,0.025089107997418487,0.00545415391248228,0.009817477042468103,0.0561345948553482,0.00019634954084936208,0.018819214850336153
0.028713871199999998,-0.3541377448,10.700702667199998,-0.009817477042468103,0.00545415391248228,0.01090830782496456,-0.037803123311723544,0.0002181661564992912,-0.0032656403082973267
-0.5168496816,0.44027935839999993,9.8201439504,0.031634092692397225,-0.002181661564992912,0.009817477042468103,0.051299189283356424,0.00019634954084936208,0.06081542018460215
-0.1339980656,-0.5742774239999999,9.6861458848,-0.019634954084936207,-0.004363323129985824,0.009817477042468103,-0.06794574251512267,0.00019634954084936208,0.015438947536509033
-0.29671000239999995,0.6317051664,10.7389878288,-0.008726646259971648,-0.008726646259971648,0.013089969389957472,0.06715817100190065,0.00026179938779914946,0.03142708143745182
-0.44027935839999993,0.19142580799999998,9.5521478192,0.038179077387375956,0.011999138607461015,0.00545415391248228,0.0231963499599218,0.0001090830782496456,0.053518126328545496
0.1339980656,-0.18185451759999996,10.729416538399999,-0.028361600344907856,-0.013089969389957472,0.00545415391248228,-0.01967700202162651,0.0001090830782496456,-0.014864255594656803
-0.3062812928,0.6125625856,10.662417505599999,0.011999138607461015,-0.007635815477475192,0.009817477042468103,0.06561162229072745,0.00019634954084936208,0.033088775811716466
0.10528419439999999,-0.0382851616,10.930413636799999,-0.003272492347489368,0.003272492347489368,0.006544984694978736,-0.0039495575882175045,0.00013089969389957473,-0.011101447652723447
-0.32542387359999997,0.7274180703999998,10.5475620208,0.02945243112740431,0.001090830782496456,0.009817477042468103,0.07892510486408824,0.00019634954084936208,0.03583728323533287
0.14356935599999998,-0.6699903279999999,9.839286531199999,0.032724923474893676,0.013089969389957472,0.0,-0.0776524430362306,0.0,-0.016039341523037858
0.09571290399999999,0.0095712904,10.939984927199998,-0.014180800172453928,-0.00545415391248228,0.009817477042468103,0.0008956491501462065,0.00019634954084936208,-0.010303192289381863
-0.44027935839999993,0.8135596839999999,10.4518491168,-0.004363323129985824,-0.014180800172453928,0.015271630954950384,0.08873929054758913,0.0003054326190990077,0.048011810326064684
-0.430708068,0.047856451999999994,9.245866526399999,0.02399827721492203,0.01090830782496456,0.002181661564992912,0.006144989981881769,4.363323129985824e-05,0.05381225061428034
-0.0095712904,0.28713871199999996,10.9974126696,-0.0272707695624114,-0.007635815477475192,0.013089969389957472,0.029763009061259046,0.00026179938779914946,0.0004624684668421713
-0.37328032559999996,0.028713871199999998,9.169296203199998,0.0545415391248228,0.007635815477475192,0.001090830782496456,0.0037381124358591236,2.181661564992912e-05,0.047693048933532475
0.10528419439999999,-0.42113677759999996,10.1838529856,0.004363323129985824,-0.001090830782496456,-0.003272492347489368,-0.047381882297555335,-6.544984694978737e-05,-0.01175081289993366
-0.5359922624,0.9092725879999999,10.1264252432,0.038179077387375956,-0.002181661564992912,-0.002181661564992912,0.10257615965080003,-4.363323129985824e-05,0.06110277273568441
-0.38285161599999995,-0.057427742399999995,9.475577496,0.04036073895236887,0.011999138607461015,-0.008726646259971648,-0.006709674825009061,-0.00017453292519943296,0.04706467153476212
-0.2679961312,0.6221338759999999,10.844272023199999,-0.014180800172453928,-0.008726646259971648,-0.00545415391248228,0.0654979405311831,-0.0001090830782496456,0.02798901779007271
-0.6125625856,0.7369893607999999,9.7340023368,-0.004363323129985824,-0.014180800172453928,-0.011999138607461015,0.08631741167967297,-0.00023998277214922032,0.07172719594985055
-0.24885355039999998,-0.41156548719999997,9.6095755616,0.04690572364734761,0.003272492347489368,-0.017453292519943295,-0.04898394238161632,-0.00034906585039886593,0.030560665279176367
-0.2584248408,0.5168496816,10.815558152,-0.03381575425739013,-0.019634954084936207,-0.008726646259971648,0.05433409519169293,-0.00017453292519943296,0.026681094081959858
-0.22971096959999998,-0.33499516399999996,9.542576528799998,0.04254240051736178,0.014180800172453928,-0.02181661564992912,-0.03993327204504995,-0.0004363323129985824,0.028396261109348692
-0.22971096959999998,0.7274180703999998,10.7868442808,-0.0272707695624114,-0.016362461737446838,-0.009817477042468103,0.07683806113389353,-0.00019634954084936208,0.02380934831371232
-0.5838487144,0.6795616184,9.714859756,0.030543261909900768,-0.00545415391248228,-0.015271630954950384,0.07992038341251617,-0.0003054326190990077,0.069216477327071
-0.1531406464,-0.47856451999999994,9.5904329808,0.031634092692397225,0.007635815477475192,-0.022907446432425576,-0.05698436433215911,-0.0004581489286485115,0.018893793481042222
-0.22013967919999997,-0.5072783912,9.5042913672,0.03381575425739013,0.002181661564992912,-0.022907446432425576,-0.06106091844593852,-0.0004581489286485115,0.027162190743953502
0.0669990328,-0.21056838879999998,10.585847182399998,-0.025089107997418487,-0.007635815477475192,-0.026179938779914945,-0.022940637384751283,-0.0005235987755982989,-0.00774284564841999
-0.6795616184,0.6891329088,9.5521478192,0.050178215994836975,0.004363323129985824,-0.031634092692397225,0.08261380332683374,-0.0006326818538479446,0.08215915723970421
-0.33499516399999996,-0.3541377448,9.772287498399999,0.004363323129985824,0.002181661564992912,-0.038179077387375956,-0.04146588894139791,-0.0007635815477475192,0.03932652764630139
-0.3445664544,0.7369893607999999,10.6815600864,-0.016362461737446838,-0.02181661564992912,-0.030543261909900768,0.07851135833802098,-0.0006108652381980154,0.036543918806876116
-0.5551348432,0.46899322959999995,10.777272990399998,0.019634954084936207,0.002181661564992912,-0.031634092692397225,0.049877982709192754,-0.0006326818538479446,0.05930290957333268
-0.0765703232,-0.38285161599999995,9.705288465599999,0.006544984694978736,-0.001090830782496456,-0.038179077387375956,-0.04520172541977132,-0.0007635815477475192,0.009161822661209816
-0.4498506487999999,1.1198409768,10.7102739576,0.04581489286485115,-0.001090830782496456,-0.04581489286485115,0.11935907703525532,-0.000916297857297023,0.048739707739638066
-0.16271193679999998,-0.1722832272,10.0402836296,0.04799655442984406,0.0,-0.05345070834232634,-0.019661064418389097,-0.001069014166846527,0.019506979726140437
-0.3158525832,1.1102696864,10.5475620208,-0.014180800172453928,-0.02399827721492203,-0.044724062082354694,0.11970975291647813,-0.0008944812416470939,0.03383850349555873
-0.5359922624,0.5838487144,9.647860723199999,0.04145156973486533,-0.002181661564992912,-0.05890486225480862,0.0692188549009661,-0.0011780972450961724,0.06429315889173266
0.11485548479999999,-0.14356935599999998,10.7868442808,-0.026179938779914945,-0.003272492347489368,-0.04799655442984406,-0.015315000638990455,-0.0009599310885968813,-0.012712993502153883
-0.5264209719999999,0.4498506487999999,9.858429112,0.031634092692397225,0.009817477042468103,-0.05781403147231216,0.052445527802020615,-0.0011562806294462434,0.061688212758298326
0.0191425808,0.1722832272,10.825129442399998,-0.030543261909900768,-0.00545415391248228,-0.06326818538479445,0.018128942428163833,-0.0012653637076958891,-0.002624765172636643
-0.4019941968,0.9667003303999999,10.7677017,0.002181661564992912,-0.020725784867432664,-0.05890486225480862,0.10219645893274068,-0.0011780972450961724,0.04263261516339063
-0.5072783912,0.6029912951999999,9.6861458848,0.05781403147231216,-0.001090830782496456,-0.06981317007977318,0.07122332245693459,-0.0013962634015954637,0.06097610785784558
0.2009970984,-0.0191425808,10.700702667199998,-0.030543261909900768,-0.016362461737446838,-0.06217735460229799,-0.002370640507441634,-0.0012435470920459598,-0.022120436285684247
-0.45942193919999996,0.6317051664,9.5617191096,0.026179938779914945,-0.006544984694978736,-0.06217735460229799,0.07546799545996409,-0.0012435470920459598,0.05541033118232583
-0.0382851616,-0.32542387359999997,9.772287498399999,-0.001090830782496456,-0.002181661564992912,-0.06654067773228381,-0.03818843916431811,-0.0013308135546456763,0.004465494905481907
-0.3445664544,0.9762716208,10.6145610536,-0.038179077387375956,-0.02181661564992912,-0.06872233929727672,0.10467200387787678,-0.0013744467859455344,0.03628079240372793
-0.5647061335999999,0.861416136,9.303294268799998,0.04036073895236887,0.0,-0.08835729338221293,0.10580162410742551,-0.0017671458676442587,0.06996725658165656
0.0861416136,-0.1339980656,9.6574320136,-0.02945243112740431,-0.006544984694978736,-0.08944812416470939,-0.016026982261424162,-0.0017889624832941877,-0.010797261988940857
-0.24885355039999998,0.9284151687999999,10.671988795999997,-0.018544123302439753,-0.014180800172453928,-0.09708393964218458,0.09916121917363972,-0.0019416787928436916,0.026252105237812545
-0.028713871199999998,-0.44027935839999993,10.1264252432,0.009817477042468103,0.00545415391248228,-0.10690141668465268,-0.04968415702329851,-0.002138028333693054,0.003438635116047046
-0.19142580799999998,0.9667003303999999,10.604989763199999,0.0,-0.02399827721492203,-0.09926560120717749,0.10369795369868583,-0.00198531202414355,0.020596774279795442
-0.5551348432,0.7465606511999999,9.4181497536,0.05345070834232634,-0.006544984694978736,-0.1189005552921137,0.09051695247400765,-0.002378011105842274,0.06830289878944967
0.2009970984,-0.0669990328,10.5954184728,-0.031634092692397225,-0.018544123302439753,-0.11671889372712078,-0.0076094469499360705,-0.002334377874542416,-0.022355222840678014
-0.5072783912,0.6412764567999999,9.437292334399999,0.011999138607461015,-0.011999138607461015,-0.12217304763960307,0.07751177660642683,-0.0024434609527920616,0.061630522596187516
0.0095712904,-0.3062812928,10.2795658896,-0.017453292519943295,-0.002181661564992912,-0.12326387842209953,-0.03417539891866207,-0.0024652775684419906,-0.0014085714550370586
-0.1531406464,1.0241280728,10.5954184728,0.028361600344907856,-0.015271630954950384,-0.12544553998709243,0.1101191486102407,-0.0025089107997418487,0.017040384672582884
-0.49770710079999997,0.6412764567999999,9.513862657599999,0.04581489286485115,0.001090830782496456,-0.1439896632895322,0.07714450541451749,-0.002879793265790644,0.0606553201114731
0.21056838879999998,0.0765703232,10.777272990399998,-0.007635815477475192,0.0,-0.14508049407202864,0.00814135921579463,-0.0029016098814405727,-0.02253536339849939
-0.21056838879999998,1.2442677519999998,10.470991697599999,-0.006544984694978736,-0.013089969389957472,-0.1439896632895322,0.13527701290510466,-0.002879793265790644,0.022751689550694388
-0.0382851616,0.0861416136,9.7340023368,0.04145156973486533,0.002181661564992912,-0.16035212502697901,0.010183341784969383,-0.0032070425005395805,0.005319293691908535
-0.3158525832,1.3304093656,10.604989763199999,-0.013089969389957472,-0.031634092692397225,-0.15489797111449674,0.14238942483695574,-0.0030979594222899347,0.0335974044183397
-0.5072783912,1.0911271056,9.2650091072,0.05126904677733343,-0.01090830782496456,-0.16144295580947549,0.1341203003302534,-0.00322885911618951,0.06325419641722188
0.09571290399999999,0.29671000239999995,10.844272023199999,-0.032724923474893676,-0.019634954084936207,-0.17235126363444003,0.030960717767464792,-0.0034470252726888006,-0.010751357133269199
-0.46899322959999995,1.0241280728,9.667003304,0.02181661564992912,-0.032724923474893676,-0.17562375598192942,0.12030643382255954,-0.0035124751196385882,0.05566932237200722
-0.047856451999999994,-0.0095712904,10.001998467999998,0.00545415391248228,-0.015271630954950384,-0.19416787928436915,-0.0013958935748306772,-0.003883357585687383,0.005589706781003417
-0.2584248408,1.2251251712,10.537990730399999,0.032724923474893676,-0.02181661564992912,-0.18653206380689397,0.13219880493646852,-0.0037306412761378793,0.028549356913270183
-0.057427742399999995,0.0765703232,9.6095755616,0.032724923474893676,0.002181661564992912,-0.1930770485018727,0.009173368848654846,-0.003861540970037454,0.007489210736686364
-0.33499516399999996,1.4452648504,10.624132343999998,-0.002181661564992912,-0.028361600344907856,-0.19416787928436915,0.15437886771384499,-0.003883357585687383,0.03574830958842335
-0.44027935839999993,1.4835500119999998,9.427721044,0.06981317007977318,-0.008726646259971648,-0.2181661564992912,0.17868403670149902,-0.004363323129985824,0.054195204525844545
0.14356935599999998,0.6987041991999999,10.719845247999999,-0.028361600344907856,-0.022907446432425576,-0.2203478180642841,0.0741346580247185,-0.004406956361285682,-0.015869563889248314
-0.11485548479999999,1.3016954943999999,10.729416538399999,0.05672320068981571,-0.020725784867432664,-0.23671027980173096,0.1379404275105507,-0.004734205596034619,0.013288741000775333
0.4881358104,-0.28713871199999996,10.1742816952,0.02945243112740431,-0.007635815477475192,-0.2399827721492203,-0.032481124876439026,-0.004799655442984406,-0.05433685213658444
-0.12442677519999999,1.5984054967999999,10.777272990399998,0.00545415391248228,-0.02945243112740431,-0.22362031041177347,0.1681465214664121,-0.00447240620823547,0.013193114209314488
0.0382851616,0.4019941968,9.523433948,0.02945243112740431,0.007635815477475192,-0.2454369260617026,0.048491270674361736,-0.004908738521234052,-0.004025304872639059
0.057427742399999995,0.6029912951999999,10.7102739576,-0.031634092692397225,-0.007635815477475192,-0.2519819107566813,0.06429765710267185,-0.005039638215133626,-0.006754574333794007
-0.10528419439999999,1.7706887239999998,10.5667046016,0.004363323129985824,-0.028361600344907856,-0.2628902185816459,0.18970032206941495,-0.0052578043716329185,0.011345788271728798
-0.19142580799999998,1.1102696864,9.647860723199999,0.05781403147231216,-0.008726646259971648,-0.26616271092913524,0.1311226435599867,-0.005323254218582705,0.02371757771923893
0.4498506487999999,0.3158525832,10.968698798399998,-0.04690572364734761,-0.031634092692397225,-0.25743606466916363,0.0323684251567177,-0.005148721293383273,-0.04787012754894848
-0.0095712904,1.3686945272,10.2987084704,-0.03599741582238305,-0.039269908169872414,-0.2530727415391778,0.1506348410797569,-0.0050614548307835565,0.00035014546465823024
-0.3445664544,1.1868400095999998,9.858429112,0.022907446432425576,-0.016362461737446838,-0.27052603405912107,0.13697344233281666,-0.0054105206811824215,0.04019733298118502
0.22971096959999998,0.2679961312,9.8967142736,0.0545415391248228,-0.006544984694978736,-0.2923426497090502,0.03089473309493869,-0.0058468529941810045,-0.025514123605056588
0.33499516399999996,0.1531406464,9.446863624799999,0.028361600344907856,-0.006544984694978736,-0.29670597283903605,0.018446230615007213,-0.005934119456780721,-0.040057065888931265
0.3541377448,0.46899322959999995,10.461420407199999,0.007635815477475192,-0.026179938779914945,-0.2879793265790644,0.05082474386815335,-0.005759586531581288,-0.03858793968732947
0.0191425808,1.4548361407999997,10.4997055688,-0.04363323129985824,-0.02945243112740431,-0.2781618495365963,0.15719589542836426,-0.005563236990731925,-0.0029246190956653067
-0.3062812928,1.43569356,10.164710404799997,0.04908738521234052,-0.018544123302439753,-0.28579766501407144,0.16042542620000533,-0.005715953300281429,0.035141157851043804
0.6604190376,0.0861416136,10.4422778264,-0.05890486225480862,-0.026179938779914945,-0.2923426497090502,0.008939674647447016,-0.0058468529941810045,-0.07352880389595486
0.33499516399999996,1.1485548479999999,10.480562987999999,-0.020725784867432664,-0.03599741582238305,-0.2879793265790644,0.12437510552821074,-0.005759586531581288,-0.036803437641634636
0.0382851616,0.38285161599999995,9.446863624799999,0.02399827721492203,-0.002181661564992912,-0.2977968036215325,0.04637218765811978,-0.00595593607243065,-0.0041698341688670175
0.46899322959999995,-0.3062812928,10.6145610536,-0.04908738521234052,-0.011999138607461015,-0.29343348049154666,-0.03329120386141438,-0.005868669609830933,-0.05153925661393717
-0.430708068,1.4452648504,9.925428144799998,0.06326818538479445,-0.013089969389957472,-0.2923426497090502,0.16543836575499862,-0.0058468529941810045,0.050417236790127454
-0.11485548479999999,0.5359922624,9.3415794304,0.04799655442984406,-0.008726646259971648,-0.30543261909900765,0.06550620349143176,-0.006108652381980153,0.015006017703361161
0.47856451999999994,0.7752745223999999,10.3274223416,0.003272492347489368,-0.04690572364734761,-0.2977968036215325,0.08494291967283414,-0.00595593607243065,-0.05285003978706364
0.37328032559999996,0.8518448456,10.671988795999997,0.018544123302439753,-0.04036073895236887,-0.2825251726665821,0.09048311353212346,-0.0056505034533316425,-0.039574629967997724
-0.3158525832,1.722832272,9.9158568544,0.0818123086872342,-0.028361600344907856,-0.2879793265790644,0.1965735290604936,-0.005759586531581288,0.03755412436938546
-0.39242290639999994,1.0336993632,9.762716207999999,0.06217735460229799,-0.00545415391248228,-0.3021601267515183,0.12077494182813767,-0.0060432025350303665,0.046999568954454216
0.22971096959999998,0.12442677519999999,9.887142983199999,0.02399827721492203,-0.019634954084936207,-0.3076142806640006,0.014035403028520634,-0.006152285613280012,-0.026146140054881306
0.3541377448,0.5934200047999999,10.4422778264,-0.032724923474893676,-0.020725784867432664,-0.30543261909900765,0.06464458383509525,-0.006108652381980153,-0.039426388700815634
0.5264209719999999,0.6891329088,10.5667046016,-0.03490658503988659,-0.03490658503988659,-0.30325095753401476,0.07394377091642722,-0.006065019150680295,-0.05760447408739207
-0.22971096959999998,1.6845471103999998,10.4231352456,0.022907446432425576,-0.03381575425739013,-0.29343348049154666,0.18294805036907835,-0.005868669609830933,0.025375896277215076
-0.3637090351999999,1.5696916255999998,9.839286531199999,0.06763150851478027,-0.004363323129985824,-0.3076142806640006,0.18119827702915528,-0.006152285613280012,0.04313680414092365
0.5838487144,-0.0382851616,10.662417505599999,-0.06872233929727672,0.0,-0.3108867730114899,-0.004114580486844506,-0.006217735460229799,-0.06403157512073313
0.4881358104,1.1294122671999998,10.4518491168,0.013089969389957472,-0.044724062082354694,-0.30652344988150415,0.1224708423911591,-0.006130468997630083,-0.0529135363194101
-0.0669990328,0.5647061335999999,9.714859756,0.014180800172453928,-0.026179938779914945,-0.3141592653589793,0.0660218745659264,-0.006283185307179587,0.008167367512692937
0.3445664544,0.7944171031999999,10.6432749248,-0.04254240051736178,-0.032724923474893676,-0.2999784651865254,0.08473175289926933,-0.0059995693037305075,-0.037816062948339196
-0.0861416136,1.3112667848,10.1742816952,0.05235987755982989,-0.015271630954950384,-0.30543261909900765,0.14657723616003493,-0.006108652381980153,0.010648454856873294
-0.29671000239999995,0.5455635528,9.6000042712,-0.002181661564992912,-0.008726646259971648,-0.30870511144649704,0.06488081077424958,-0.006174102228929941,0.03530610132481248
0.42113677759999996,0.47856451999999994,11.00698396,-0.04363323129985824,-0.031634092692397225,-0.3010692959690218,0.049171030223212175,-0.006021385919380437,-0.044636241742555385
-0.14356935599999998,1.3304093656,10.384850083999998,0.06654067773228381,-0.011999138607461015,-0.2999784651865254,0.14577343553491312,-0.0059995693037305075,0.017016938864212232
0.47856451999999994,0.18185451759999996,10.537990730399999,-0.017453292519943295,-0.015271630954950384,-0.2999784651865254,0.019473823434476078,-0.0059995693037305075,-0.05233838597451205
0.4881358104,0.7465606511999999,10.2987084704,-0.03381575425739013,-0.026179938779914945,-0.29343348049154666,0.08241005562416451,-0.005868669609830933,-0.054794184457388616
-0.2679961312,1.5601203352,10.346564922399999,0.016362461737446838,-0.02181661564992912,-0.3010692959690218,0.17106882106455298,-0.006021385919380437,0.0296639497555243
-0.3158525832,1.0336993632,9.494720076799998,0.04908738521234052,-0.007635815477475192,-0.31525009614147576,0.12411784332220915,-0.006305001922829515,0.038844553950905955
0.5168496816,0.22013967919999997,10.585847182399998,-0.001090830782496456,-0.031634092692397225,-0.3010692959690218,0.023206608539508473,-0.006021385919380437,-0.05591378335829258
0.1531406464,1.0241280728,10.5475620208,-0.04690572364734761,-0.04036073895236887,-0.28579766501407144,0.1101252770517398,-0.005715953300281429,-0.017477935762939815
-0.3637090351999999,1.0336993632,9.8010013696,0.05781403147231216,-0.013089969389957472,-0.2945243112740431,0.12015656013668538,-0.005890486225480863,0.043403625840237395
0.44027935839999993,-0.14356935599999998,9.6957171752,-0.03381575425739013,-0.018544123302439753,-0.2923426497090502,-0.017330372753262595,-0.0058468529941810045,-0.05265702806651471
0.21056838879999998,1.0911271056,10.1072826624,-0.01090830782496456,-0.03381575425739013,-0.28579766501407144,0.12256677328996761,-0.005715953300281429,-0.023945743459115442
-0.28713871199999996,1.2729816232,9.753144917599998,0.017453292519943295,-0.04145156973486533,-0.284706834231575,0.1479118586472135,-0.0056941366846315,0.033785322154655864
1.0528419439999999,-0.39242290639999994,10.2508520184,-0.018544123302439753,-0.044724062082354694,-0.272707695624114,-0.0447230979048103,-0.0054541539124822805,-0.11756138029234453
0.3637090351999999,0.47856451999999994,10.5475620208,-0.061086523819801536,-0.03599741582238305,-0.2596177262341565,0.05125135736657107,-0.005192354524683131,-0.040655414399906234
-0.16271193679999998,-0.0765703232,9.6095755616,0.04036073895236887,-0.002181661564992912,-0.26725354171163174,-0.009173368848654846,-0.005345070834232635,0.020191553985613946
0.057427742399999995,0.8518448456,10.3752787936,-0.017453292519943295,-0.02945243112740431,-0.26616271092913524,0.09329565470965938,-0.005323254218582705,-0.006663456157353559
-0.3158525832,1.1964112999999998,10.4997055688,0.04363323129985824,-0.03381575425739013,-0.26070855701665296,0.12935024323854494,-0.0052141711403330595,0.0350948667896727
0.39242290639999994,-0.1339980656,10.5188481496,-0.007635815477475192,-0.02181661564992912,-0.2476185876266955,-0.015024466947220677,-0.00495237175253391,-0.042876645131738236
-0.18185451759999996,1.5026925928,10.461420407199999,-0.014180800172453928,-0.020725784867432664,-0.22471114119426994,0.1630763919082522,-0.004494222823885399,0.019437585706826285
-0.47856451999999994,0.9954142015999999,10.1072826624,0.05345070834232634,0.02181661564992912,-0.2279836335417593,0.11292016649565695,-0.004559672670835186,0.055003861152557156
0.6508477471999999,0.16271193679999998,10.193424275999998,-0.0272707695624114,-0.020725784867432664,-0.210530341021816,0.01788383165045677,-0.00421060682043632,-0.07359248112470904
-0.42113677759999996,1.0719845248,9.4181497536,0.04145156973486533,0.016362461737446838,-0.22362031041177347,0.1301912105008393,-0.00447240620823547,0.05169039664166442
0.71784678,-0.2679961312,10.624132343999998,-0.04145156973486533,-0.008726646259971648,-0.20725784867432664,-0.02907089238622456,-0.004145156973486533,-0.07809716399829307
-0.29671000239999995,0.9954142015999999,10.068997500799998,0.028361600344907856,-0.007635815477475192,-0.20616701789183017,0.11276786894855681,-0.004123340357836604,0.034149926753129375
-0.0191425808,0.2009970984,9.178867493599999,0.01090830782496456,-0.016362461737446838,-0.20943951023931956,0.024768328203576783,-0.004188790204786391,0.002603040137993099
0.2009970984,0.861416136,10.7677017,-0.013089969389957472,-0.03599741582238305,-0.1908953869368798,0.09077287584789859,-0.003817907738737596,-0.021576404922342727
0.49770710079999997,0.9284151687999999,11.054840412,-0.026179938779914945,-0.028361600344907856,-0.20398535632683726,0.09545587593711545,-0.004079707126536746,-0.05188870020671766
0.0382851616,0.7274180703999998,9.4851487864,0.06654067773228381,-0.001090830782496456,-0.20943951023931956,0.08768744811379015,-0.004188790204786391,-0.0033075259297963453
0.5934200047999999,1.0049854919999999,11.054840412,-0.004363323129985824,-0.001090830782496456,-0.20398535632683726,0.10386719787135928,-0.004079707126536746,-0.061286996714498006
0.1531406464,0.5264209719999999,10.6911313768,-0.037088246604879506,-0.018544123302439753,-0.20943951023931956,0.05601477762501205,-0.004188790204786391,-0.01712013867247364
-0.21056838879999998,0.7561319415999999,8.997012976,0.0272707695624114,-0.009817477042468103,-0.23671027980173096,0.09588746498456924,-0.004734205596034619,0.02725474871811249
-0.0765703232,0.3637090351999999,10.1742816952,-0.04363323129985824,-0.002181661564992912,-0.23671027980173096,0.04090386017375214,-0.004734205596034619,0.007763133049180285
-0.16271193679999998,1.5984054967999999,10.652846215199999,-0.013089969389957472,-0.03490658503988659,-0.23671027980173096,0.16998148870528965,-0.004734205596034619,0.017051115845963246
-0.5742774239999999,1.0911271056,9.963713306399999,0.002181661564992912,-0.006544984694978736,-0.2530727415391778,0.12486297075287889,-0.0050614548307835565,0.0656255635091267
0.10528419439999999,0.19142580799999998,9.7818587888,-0.03381575425739013,-0.022907446432425576,-0.25416357232167425,0.02197311468217911,-0.005083271446433485,-0.012993681250788643
-0.46899322959999995,1.3974083983999999,9.6861458848,0.02945243112740431,-0.01090830782496456,-0.26070855701665296,0.1639731887304366,-0.0052141711403330595,0.05545079289861921
0.45942193919999996,0.32542387359999997,10.289137179999999,-0.019634954084936207,-0.032724923474893676,-0.25634523388666713,0.03558942554916155,-0.005126904677733342,-0.051491823816615226
-0.5455635528,1.1102696864,9.4660062056,0.07963064712224129,-0.006544984694978736,-0.27379852640661045,0.1336650814273913,-0.005475970528132209,0.06708328147853868
0.2584248408,-0.6125625856,9.925428144799998,0.061086523819801536,0.03381575425739013,-0.2814343418840856,-0.0699695123303087,-0.005628686837681712,-0.028575140339046443
0.44027935839999993,0.3158525832,9.9349994352,0.03490658503988659,0.011999138607461015,-0.272707695624114,0.03665375916053026,-0.0054541539124822805,-0.050039418705912705
-0.4019941968,2.4023938904,9.5904329808,0.08290313946973066,-0.01090830782496456,-0.2552544031041707,0.28104918134367657,-0.005105088062083414,0.04819203807487344
0.22013967919999997,0.5455635528,9.7340023368,-0.009817477042468103,-0.04145156973486533,-0.25089107997418486,0.06334578314420797,-0.0050178215994836975,-0.02606291314788213
-0.14356935599999998,1.1102696864,10.5475620208,0.0,-0.044724062082354694,-0.2628902185816459,0.11930352753307645,-0.0052578043716329185,0.015511112077992306
-0.45942193919999996,1.0241280728,10.1838529856,0.015271630954950384,-0.017453292519943295,-0.2814343418840856,0.11450953748218508,-0.005628686837681712,0.05170082716221771
0.7082754896,0.23928225999999997,10.7581304096,-0.05890486225480862,-0.05235987755982989,-0.26070855701665296,0.024456991116545267,-0.0052141711403330595,-0.07647008535700643
-0.2584248408,1.3016954943999999,10.3657075032,0.019634954084936207,-0.032724923474893676,-0.24980024919168842,0.14251000681142217,-0.004996004983833769,0.02872497073640326
0.1531406464,-0.0382851616,9.389435882399999,0.006544984694978736,-0.019634954084936207,-0.26070855701665296,-0.005057257902289944,-0.0052141711403330595,-0.018559660791167505
0.3637090351999999,0.5838487144,10.987841379199999,-0.05126904677733343,-0.04036073895236887,-0.25416357232167425,0.06004096408016304,-0.005083271446433485,-0.03886865676953173
-0.4019941968,1.2729816232,10.432706535999998,0.06654067773228381,-0.013089969389957472,-0.26725354171163174,0.1388783823864487,-0.005345070834232635,0.04511231678832023
-0.0095712904,0.71784678,9.676574594399998,0.0916297857297023,0.028361600344907856,-0.26398104936414235,0.08540903371253414,-0.005279620987282847,0.002926285083758355
0.37328032559999996,1.3974083983999999,10.4039926648,-0.030543261909900768,-0.02181661564992912,-0.2476185876266955,0.15256995796130549,-0.00495237175253391,-0.04132938145214318
0.057427742399999995,0.5455635528,8.709874264,0.05126904677733343,-0.026179938779914945,-0.2617993877991494,0.07117035287104644,-0.005235987755982988,-0.006535726973246445
0.23928225999999997,0.5264209719999999,10.8347007328,-0.07526732399225546,-0.04581489286485115,-0.2683443724941282,0.05473439018597105,-0.005366887449882563,-0.026748645779229415
-0.28713871199999996,0.7369893607999999,9.925428144799998,0.001090830782496456,-0.037088246604879506,-0.27379852640661045,0.08420448206153745,-0.005475970528132209,0.033072085742857325
0.2679961312,0.2009970984,9.7340023368,0.008726646259971648,-0.02945243112740431,-0.26070855701665296,0.023081344053828386,-0.0052141711403330595,-0.031363569512651644
0.41156548719999997,-0.028713871199999998,10.939984927199998,-0.05126904677733343,-0.017453292519943295,-0.24107360293171676,-0.00334973009482274,-0.0048214720586343355,-0.04409409014116874
0.4498506487999999,-0.10528419439999999,10.2029955664,0.0,-0.014180800172453928,-0.23343778745424157,-0.012102168938960638,-0.004668755749084832,-0.050488098459160115
0.38285161599999995,0.8518448456,10.3274223416,-0.04799655442984406,-0.011999138607461015,-0.2476185876266955,0.09407078190119089,-0.00495237175253391,-0.04325836015773416
-0.11485548479999999,1.1294122671999998,10.212566856799999,0.05235987755982989,-0.00545415391248228,-0.2596177262341565,0.1261075314393757,-0.005192354524683131,0.013835149957691154
-0.10528419439999999,0.5742774239999999,9.839286531199999,0.028361600344907856,0.00545415391248228,-0.2825251726665821,0.06691334301066178,-0.0056505034533316425,0.012796332511044579
0.19142580799999998,0.9762716208,10.7389878288,-0.009817477042468103,-0.006544984694978736,-0.27379852640661045,0.10376029645467465,-0.005475970528132209,-0.020532702317495138
0.21056838879999998,1.6845471103999998,10.2987084704,0.038179077387375956,-0.031634092692397225,-0.2617993877991494,0.18517070992293197,-0.005235987755982988,-0.02237078074263139
0.12442677519999999,0.4019941968,10.470991697599999,0.01090830782496456,-0.003272492347489368,-0.2694352032766246,0.04390736773471358,-0.005388704065532493,-0.01339244676044246
0.33499516399999996,0.9475577495999999,10.6337036344,-0.013089969389957472,-0.028361600344907856,-0.27598018797160334,0.10128641512321915,-0.005519603759432067,-0.036202243789784636
-0.3062812928,1.8376877567999998,9.379864591999999,0.0719948316447661,-0.018544123302439753,-0.29561514205653955,0.22133436102811932,-0.005912302841130791,0.03811810409995595
0.1339980656,0.5455635528,9.3511507208,-0.003272492347489368,-0.0272707695624114,-0.29670597283903605,0.06624464474163591,-0.005934119456780721,-0.016455637643322394
-0.0382851616,1.7515461431999997,10.5571333112,-0.02945243112740431,-0.038179077387375956,-0.2901609881440573,0.18765567329400187,-0.0058032197628811455,0.0035223064090617
-0.19142580799999998,1.5314064639999998,9.9445707256,0.044724062082354694,-0.050178215994836975,-0.284706834231575,0.17410550264535843,-0.0056941366846315,0.022675026786874407
0.028713871199999998,0.7369893607999999,9.475577496,0.018544123302439753,-0.014180800172453928,-0.29888763440402893,0.08866975331842977,-0.005977752688080579,-0.003098540395509537
0.3445664544,1.0049854919999999,10.748559119199998,-0.039269908169872414,-0.03599741582238305,-0.2923426497090502,0.10612645617994702,-0.0058468529941810045,-0.03733235758286204
0.2009970984,1.43569356,10.4518491168,0.044724062082354694,-0.011999138607461015,-0.30543261909900765,0.15619185897079288,-0.006108652381980153,-0.020952601369184747
-0.430708068,1.5409777543999998,10.155139114399999,0.06654067773228381,-0.007635815477475192,-0.32179508083645453,0.17241924353279156,-0.0064359016167290905,0.04932750165428261
0.5072783912,0.6317051664,10.719845247999999,-0.03490658503988659,-0.022907446432425576,-0.31306843457648287,0.06700018079764503,-0.006261368691529657,-0.05477641080176229
-0.0191425808,1.4931213023999999,10.097711372,0.019634954084936207,-0.02399827721492203,-0.3239767424014474,0.16775408326448624,-0.006479534848028949,0.002533827944499879
-0.2775674216,2.0291135648,10.2508520184,0.06654067773228381,-0.014180800172453928,-0.3272492347489368,0.22365646022701074,-0.006544984694978736,0.031734980053541424
0.028713871199999998,0.9379864591999999,10.145567823999999,0.001090830782496456,-0.009817477042468103,-0.3108867730114899,0.10545040501030474,-0.006217735460229799,-0.0032079962392237166
0.22013967919999997,1.4548361407999997,10.260423308799998,-0.016362461737446838,-0.044724062082354694,-0.3076142806640006,0.16052805194154768,-0.006152285613280012,-0.024659438649448487
-0.028713871199999998,0.5455635528,8.6907316832,0.016362461737446838,-0.006544984694978736,-0.3239767424014474,0.07171267815139112,-0.006479534848028949,0.0040993173040673805
0.37328032559999996,0.22971096959999998,10.671988795999997,-0.05672320068981571,-0.02399827721492203,-0.32834006553143325,0.024191273248974843,-0.006566801310628665,-0.04116752311216312
-0.2775674216,2.0673987264,10.116853952799998,-0.004363323129985824,-0.04036073895236887,-0.32506757318394386,0.23019869061277431,-0.006501351463678877,0.030709980969612704
-0.09571290399999999,0.8805587167999999,9.676574594399998,0.03381575425739013,-0.014180800172453928,-0.32506757318394386,0.10371282974352015,-0.006501351463678877,0.01195026045236673
0.24885355039999998,0.7657032319999999,9.667003304,0.03381575425739013,-0.008726646259971648,-0.32179508083645453,0.09040544247195541,-0.0064359016167290905,-0.028737472613532797
0.3637090351999999,0.7465606511999999,10.1742816952,0.011999138607461015,-0.039269908169872414,-0.3174317577064687,0.0831640030525714,-0.006348635154129374,-0.040601741053012515
-0.09571290399999999,1.4261222696,10.001998467999998,-0.002181661564992912,-0.03381575425739013,-0.3097959422289935,0.16163220696986877,-0.0061959188445798695,0.010812818428159088
0.1339980656,1.1581261384,10.528419439999999,0.03599741582238305,-0.019634954084936207,-0.31525009614147576,0.12516112469188645,-0.006305001922829515,-0.013790614814362964
0.12442677519999999,0.37328032559999996,10.222138147199999,0.03490658503988659,-0.00545415391248228,-0.31306843457648287,0.041719745743982,-0.006261368691529657,-0.013254263549230188
0.33499516399999996,1.2825529135999998,10.336993631999999,-0.04690572364734761,-0.013089969389957472,-0.2999784651865254,0.14119893542872564,-0.0059995693037305075,-0.03776022192029557
-0.11485548479999999,1.3974083983999999,10.2508520184,-0.019634954084936207,-0.008726646259971648,-0.2825251726665821,0.15508453161891142,-0.0056505034533316425,0.012336359873694643
-0.1531406464,0.32542387359999997,8.9587278144,0.05126904677733343,0.002181661564992912,-0.29670597283903605,0.041649606023568056,-0.005934119456780721,0.020578359663190823
0.5647061335999999,0.2775674216,10.7868442808,-0.026179938779914945,-0.031634092692397225,-0.28907015736156083,0.028860202849364178,-0.005781403147231217,-0.06042887267803808
0.2584248408,0.6412764567999999,11.179267187199999,-0.0272707695624114,-0.015271630954950384,-0.2748893571891069,0.06536189107633743,-0.005497787143782138,-0.02697582571674304
-0.19142580799999998,0.9379864591999999,9.829715240799999,0.07744898555724837,-0.011999138607461015,-0.2716168648416175,0.10878207471194289,-0.00543233729683235,0.02373009207853255
-0.028713871199999998,0.6317051664,10.4231352456,-0.030543261909900768,-0.014180800172453928,-0.2694352032766246,0.06908664149496294,-0.005388704065532493,0.0025523547087422053
0.37328032559999996,0.32542387359999997,10.1742816952,-0.06763150851478027,-0.04254240051736178,-0.26398104936414235,0.03580572868038454,-0.005279620987282847,-0.04332732756505015
0.44027935839999993,0.29671000239999995,10.289137179999999,-0.022907446432425576,-0.03490658503988659,-0.27379852640661045,0.03235168331306796,-0.005475970528132209,-0.04943327999937644
-0.22971096959999998,1.6654045296,9.8680004024,-0.04581489286485115,-0.015271630954950384,-0.26616271092913524,0.19128939722631763,-0.005323254218582705,0.02540049631637178
-0.5838487144,0.6221338759999999,10.528419439999999,0.06981317007977318,0.016362461737446838,-0.25634523388666713,0.06795525073558119,-0.005126904677733342,0.06473923202209954
0.33499516399999996,0.46899322959999995,10.853843313599999,0.04363323129985824,-0.009817477042468103,-0.2378011105842274,0.04929166681337665,-0.004756022211684548,-0.03446838983517475
0.5359922624,0.47856451999999994,11.5142623512,-0.031634092692397225,-0.009817477042468103,-0.2301652951067522,0.04740759536642051,-0.004603305902135044,-0.053878337633384864
-0.45942193919999996,1.1485548479999999,9.6574320136,0.001090830782496456,-0.006544984694978736,-0.2203478180642841,0.13551789558321994,-0.004406956361285682,0.05411301391870168
-0.3445664544,0.9284151687999999,9.5521478192,0.014180800172453928,0.014180800172453928,-0.2203478180642841,0.11130576813290864,-0.004406956361285682,0.04140204114104743
0.4019941968,0.9092725879999999,10.413563955199999,-0.03599741582238305,-0.044724062082354694,-0.21707532571679475,0.09892725125801015,-0.004341506514335895,-0.0447518855628856
0.16271193679999998,1.2251251712,10.461420407199999,-0.06981317007977318,-0.07417649320975901,-0.21925698728178766,0.13213454462586452,-0.004385139745635753,-0.01906898010112392
-0.3445664544,0.9284151687999999,11.169695896799999,0.02181661564992912,-0.003272492347489368,-0.21707532571679475,0.09496489843086861,-0.004341506514335895,0.035644612998105486
-0.14356935599999998,0.0095712904,9.954142015999999,0.10471975511965978,-0.015271630954950384,-0.20725784867432664,0.0008025176074246878,-0.004145156973486533,0.01857898235616375
0.33499516399999996,1.0528419439999999,11.8396862248,0.007635815477475192,-0.038179077387375956,-0.17453292519943295,0.10088469624846731,-0.003490658503988659,-0.032137187042462156
0.1339980656,1.6175480776,10.6911313768,0.04799655442984406,-0.017453292519943295,-0.1734420944169365,0.17172775273540744,-0.00346884188833873,-0.01325933982749877
-0.22971096959999998,0.6029912951999999,9.236295236,0.08290313946973066,0.003272492347489368,-0.18980455615438332,0.07476919666725813,-0.0037960911230876665,0.030057979428777297
0.18185451759999996,0.28713871199999996,10.8825571848,0.028361600344907856,0.002181661564992912,-0.19416787928436915,0.030270986954248083,-0.003883357585687383,-0.01858465551290144
0.5742774239999999,1.2634103328,10.413563955199999,-0.05235987755982989,-0.018544123302439753,-0.17889624832941878,0.13798689174752274,-0.0035779249665883754,-0.06369755192963887
-0.22013967919999997,1.6271193679999998,10.336993631999999,-0.05890486225480862,-0.004363323129985824,-0.16471544815696484,0.17882211553743163,-0.0032943089631392967,0.02294884474824669
-0.1722832272,0.23928225999999997,9.33200814,-0.03490658503988659,0.019634954084936207,-0.16907877128695067,0.02976085938778127,-0.0033815754257390134,0.020461844086726196
0.2584248408,-0.1722832272,10.269994599199999,-0.020725784867432664,-0.01090830782496456,-0.17998707911191522,-0.019435187821062478,-0.0035997415822383045,-0.029230869842185443
0.29671000239999995,0.3541377448,10.4422778264,-0.044724062082354694,0.00545415391248228,-0.1712604328519436,0.03895441108234386,-0.003425208657038872,-0.033409527642782724
0.12442677519999999,-0.0382851616,9.7244310464,0.00545415391248228,0.006544984694978736,-0.17453292519943295,-0.0043831736926594565,-0.003490658503988659,-0.01455449066324711
0.0191425808,0.0095712904,10.7677017,0.05999569303730508,0.011999138607461015,-0.14726215563702155,0.0012537744842234463,-0.0029452431127404313,-0.0008612647370706439
0.2679961312,0.16271193679999998,10.1838529856,0.05890486225480862,-0.044724062082354694,-0.10144726277217041,0.017430652396813996,-0.002028945255443408,-0.028990334224317564
-0.23928225999999997,0.22013967919999997,10.222138147199999,-0.032724923474893676,0.003272492347489368,-0.10799224746714914,0.024738284321641442,-0.002159844949342983,0.026171345946862237
-0.6891329088,0.6795616184,10.030712339199999,-0.05235987755982989,0.0272707695624114,-0.1341721862470641,0.07804965315866401,-0.0026834437249412817,0.07739804999958722
0.18185451759999996,0.24885355039999998,9.7244310464,-0.013089969389957472,0.03381575425739013,-0.12544553998709243,0.029981001528195928,-0.0025089107997418487,-0.0216765787024476
0.0382851616,0.0095712904,10.4901342784,-0.0719948316447661,0.038179077387375956,-0.12762720155208535,0.0017938530484295648,-0.002552544031041707,-0.0055932520780656355
-0.16271193679999998,0.3062812928,10.413563955199999,0.0272707695624114,-0.020725784867432664,-0.07744898555724837,0.03328746097452418,-0.0015489797111449674,0.018430243849318288
-0.1722832272,-0.23928225999999997,10.193424275999998,0.04254240051736178,-0.020725784867432664,-0.06654067773228381,-0.02730071315744833,-0.0013308135546456763,0.020194242238938447
-0.1722832272,-0.22013967919999997,10.336993631999999,0.009817477042468103,0.006544984694978736,-0.06435901616729091,-0.02427178794737161,-0.0012871803233458182,0.019284919388260463
-0.23928225999999997,0.47856451999999994,9.8680004024,0.016362461737446838,0.030543261909900768,-0.04799655442984406,0.05612815755174057,-0.0009599310885968813,0.02806916904551716
-0.18185451759999996,-0.0095712904,10.825129442399998,0.030543261909900768,0.014180800172453928,-0.044724062082354694,-0.0007352440192286908,-0.0008944812416470939,0.019847401142231012
-0.19142580799999998,0.1531406464,10.260423308799998,-0.017453292519943295,-0.030543261909900768,-0.03381575425739013,0.016503299991900425,-0.0006763150851478027,0.02103207766193319
0.2584248408,0.29671000239999995,10.537990730399999,-0.02945243112740431,-0.02181661564992912,-0.04690572364734761,0.03182852551999427,-0.0009381144729469522,-0.028661982916038144
0.3637090351999999,-0.0191425808,10.317851051199998,0.037088246604879506,-0.002181661564992912,-0.04254240051736178,-0.002168761077772341,-0.0008508480103472356,-0.03965033830002002
0.41156548719999997,-0.09571290399999999,10.8729858944,0.013089969389957472,-0.026179938779914945,-0.04254240051736178,-0.010600151384561699,-0.0008508480103472356,-0.04309638656244516
0.12442677519999999,0.16271193679999998,10.6911313768,-0.014180800172453928,-0.038179077387375956,-0.028361600344907856,0.01669041985982848,-0.0005672320068981572,-0.013612326308653125
-0.3062812928,0.4019941968,10.8729858944,-0.015271630954950384,0.017453292519943295,-0.006544984694978736,0.04268939401323444,-0.00013089969389957473,0.03194943318547413
-0.5838487144,-0.0382851616,10.537990730399999,-0.009817477042468103,0.009817477042468103,0.00545415391248228,-0.0039707402060252,0.0001090830782496456,0.0632308285515839
0.057427742399999995,-0.21056838879999998,10.0594262104,-0.007635815477475192,0.01090830782496456,-0.003272492347489368,-0.023769510075289914,-6.544984694978737e-05,-0.006690016965144934
0.24885355039999998,0.0669990328,10.3752787936,0.0,-0.020725784867432664,-0.02399827721492203,0.00699349568362711,-0.00047996554429844063,-0.02747921874090276
0.29671000239999995,0.0382851616,10.5667046016,-0.009817477042468103,-0.02181661564992912,-0.019634954084936207,0.0037242442461878815,-0.00039269908169872416,-0.032360736278775816
0.0861416136,0.0,10.4997055688,0.014180800172453928,-0.017453292519943295,-0.003272492347489368,-0.0003420845333908886,-6.544984694978737e-05,-0.009123158350470544
0.18185451759999996,-0.0765703232,10.777272990399998,0.004363323129985824,-0.003272492347489368,0.015271630954950384,-0.008205500065805421,0.0003054326190990077,-0.01924820961755787
-0.29671000239999995,-0.2679961312,10.5188481496,-0.003272492347489368,0.009817477042468103,0.011999138607461015,-0.028996564549812975,0.00023998277214922032,0.032240182794285775
-0.0095712904,-0.0765703232,9.7914300792,-0.018544123302439753,0.0,0.008726646259971648,-0.008961034070811162,0.00017453292519943296,0.0007566526690419229
-0.23928225999999997,0.0861416136,10.078568791199999,0.02399827721492203,0.004363323129985824,-0.004363323129985824,0.009879432995932216,-8.726646259971648e-05,0.027670236326274713
-0.430708068,0.32542387359999997,10.04985492,-0.00545415391248228,0.0,0.003272492347489368,0.037092877500656166,6.544984694978737e-05,0.048948052537090656
-0.0861416136,0.41156548719999997,10.5667046016,0.016362461737446838,0.001090830782496456,0.009817477042468103,0.0446314127778919,0.00019634954084936208,0.00965512312141288
-0.16271193679999998,-0.12442677519999999,9.839286531199999,0.0,-0.002181661564992912,0.017453292519943295,-0.014533138630466442,0.00034906585039886593,0.018946724211473587
0.3445664544,-0.42113677759999996,9.437292334399999,-0.011999138607461015,-0.001090830782496456,0.01090830782496456,-0.0511236697920364,0.0002181661564992912,-0.042013769143612475
-0.2009970984,0.3062812928,10.078568791199999,0.008726646259971648,-0.008726646259971648,0.002181661564992912,0.034641889302627654,4.363323129985824e-05,0.023010489687262
-0.44027935839999993,0.430708068,10.4997055688,-0.009817477042468103,0.001090830782496456,0.014180800172453928,0.04700160535945804,0.0002836160034490786,0.04779029228986608
-0.19142580799999998,-0.1339980656,10.6432749248,-0.015271630954950384,0.003272492347489368,0.022907446432425576,-0.014362091807429273,0.0004581489286485115,0.02030681408858794
-0.19142580799999998,-0.28713871199999996,9.714859756,0.014180800172453928,0.007635815477475192,0.003272492347489368,-0.033709906769219526,6.544984694978737e-05,0.022844787170634324
-0.3445664544,0.5264209719999999,10.116853952799998,0.01090830782496456,0.007635815477475192,-0.003272492347489368,0.05972257437432701,-6.544984694978737e-05,0.0391744006169172
-0.39242290639999994,-0.0095712904,9.887142983199999,0.031634092692397225,0.007635815477475192,0.001090830782496456,-0.0009596460827643859,2.181661564992912e-05,0.04607779178527358
-0.0669990328,-0.0382851616,10.4901342784,0.032724923474893676,-0.014180800172453928,0.015271630954950384,-0.0044600988019923935,0.0003054326190990077,0.007960064198575163
-0.41156548719999997,0.4498506487999999,10.4997055688,0.004363323129985824,-0.00545415391248228,0.013089969389957472,0.04895883670540729,0.00026179938779914946,0.04493881589935538
-0.5551348432,0.23928225999999997,9.8967142736,0.018544123302439753,0.011999138607461015,0.016362461737446838,0.027935675815263454,0.00032724923474893676,0.06455512052107484
-0.23928225999999997,0.1722832272,10.001998467999998,0.018544123302439753,0.01090830782496456,0.016362461737446838,0.019950110061004913,0.00032724923474893676,0.027768421546999513
-0.44027935839999993,0.0382851616,9.4564349152,-0.004363323129985824,-0.017453292519943295,0.013089969389957472,0.004297224492573219,0.00026179938779914946,0.053227887069601465
-0.33499516399999996,0.028713871199999998,10.269994599199999,0.008726646259971648,-0.008726646259971648,0.014180800172453928,0.0030328140363277316,0.0002836160034490786,0.03753606898818372
0.0,0.0,10.5571333112,0.02181661564992912,-0.020725784867432664,0.013089969389957472,-0.0004062253834016802,0.00026179938779914946,0.00042760566673861073
-0.19142580799999998,-0.2009970984,10.7389878288,0.013089969389957472,0.001090830782496456,-0.001090830782496456,-0.02142373380216113,-2.181661564992912e-05,0.020677127543188976
-0.2679961312,0.4019941968,10.116853952799998,-0.015271630954950384,-0.002181661564992912,0.014180800172453928,0.04546636819841024,0.0002836160034490786,0.030025039921567846
-0.49770710079999997,0.4881358104,9.427721044,0.06654067773228381,-0.00545415391248228,0.018544123302439753,0.05917183465219594,0.00037088246604879505,0.06166242686601359
-0.29671000239999995,0.10528419439999999,10.5571333112,-0.02181661564992912,-0.009817477042468103,0.008726646259971648,0.011235187269780011,0.00017453292519943296,0.03176846815170047
-0.5742774239999999,0.29671000239999995,10.4422778264,-0.039269908169872414,0.011999138607461015,0.015271630954950384,0.03278681256414746,0.0003054326190990077,0.062161647635908576
-0.4498506487999999,0.1722832272,10.04985492,0.020725784867432664,0.019634954084936207,0.001090830782496456,0.02002718836454853,2.181661564992912e-05,0.05165785315781477
-0.0382851616,-0.22971096959999998,9.8680004024,-0.011999138607461015,0.014180800172453928,0.007635815477475192,-0.026392287323044588,0.00015271630954950385,0.004209431803696454
-0.24885355039999998,0.4881358104,9.877571692799998,-0.03381575425739013,-0.02181661564992912,0.013089969389957472,0.05615591108586726,0.00026179938779914946,0.028165905415906453
-0.3445664544,0.22971096959999998,9.619146851999998,0.01090830782496456,-0.030543261909900768,0.011999138607461015,0.026761300311093045,0.00023998277214922032,0.04123229794732986
-0.4019941968,0.23928225999999997,10.289137179999999,0.015271630954950384,-0.007635815477475192,0.01090830782496456,0.026494735094034286,0.0002181661564992912,0.04503513704691937
0.0765703232,-0.33499516399999996,10.470991697599999,0.04145156973486533,0.02399827721492203,0.01090830782496456,-0.03617805281675871,0.0002181661564992912,-0.007562753662292489
-0.14356935599999998,0.0191425808,10.585847182399998,0.02399827721492203,0.01090830782496456,0.011999138607461015,0.002285980665576171,0.00023998277214922032,0.01601073873132217
-0.12442677519999999,0.49770710079999997,10.155139114399999,0.006544984694978736,0.014180800172453928,0.02399827721492203,0.0563947855327158,0.00047996554429844063,0.0141511853889585
0.0669990328,0.7657032319999999,10.5475620208,0.028361600344907856,-0.007635815477475192,0.018544123302439753,0.08289272722472969,0.00037088246604879505,-0.006703866319133419
0.24885355039999998,0.44027935839999993,10.4901342784,0.017453292519943295,-0.009817477042468103,0.014180800172453928,0.04787436410861389,0.0002836160034490786,-0.026813048691271112
0.0191425808,0.0861416136,10.1072826624,-0.019634954084936207,0.016362461737446838,0.00545415391248228,0.010086793848573661,0.0001090830782496456,-0.002555058366501754
0.37328032559999996,-0.028713871199999998,10.068997500799998,-0.018544123302439753,0.0272707695624114,0.00545415391248228,-0.002733304182690549,0.0001090830782496456,-0.042825508393048585
0.33499516399999996,0.46899322959999995,9.169296203199998,-0.004363323129985824,0.003272492347489368,0.016362461737446838,0.0586246578852874,0.00032724923474893676,-0.04187771842737463
0.22971096959999998,0.0382851616,9.9924271776,0.009817477042468103,-0.022907446432425576,0.02181661564992912,0.003941473755117431,0.0004363323129985824,-0.02614563231644393
0.2679961312,0.38285161599999995,9.848857821600001,-0.007635815477475192,-0.017453292519943295,0.017453292519943295,0.04418032248727695,0.00034906585039886593,-0.03129983129799765
-0.19142580799999998,0.0765703232,9.7914300792,0.01090830782496456,-0.002181661564992912,0.02181661564992912,0.0089182735041373,0.0004363323129985824,0.02261330633376816
0.0,-0.39242290639999994,10.1359965336,-0.007635815477475192,0.01090830782496456,0.009817477042468103,-0.04412905465251902,0.00019634954084936208,-0.00014966198335851377
0.39242290639999994,0.7369893607999999,10.269994599199999,-0.05890486225480862,-0.018544123302439753,0.013089969389957472,0.08172833814762014,0.00026179938779914946,-0.04480724828031808
0.12442677519999999,0.5647061335999999,10.537990730399999,0.022907446432425576,-0.038179077387375956,0.011999138607461015,0.060599932533234306,0.00023998277214922032,-0.01306134114352064
0.11485548479999999,0.861416136,9.2650091072,0.11780972450961724,-0.02181661564992912,0.011999138607461015,0.10580871952763123,0.00023998277214922032,-0.011834772281212108
0.41156548719999997,-0.5551348432,10.4039926648,0.01090830782496456,-0.0272707695624114,0.018544123302439753,-0.061620189611130506,0.00037088246604879505,-0.04502888979835476
0.3541377448,0.6891329088,11.045269121599999,-0.038179077387375956,-0.02181661564992912,0.032724923474893676,0.0709754396681443,0.0006544984694978735,-0.03740529269520461
0.23928225999999997,-0.2009970984,10.662417505599999,0.07308566242726255,-0.016362461737446838,0.0272707695624114,-0.021919786402072212,0.000545415391248228,-0.024274878002865895
0.5934200047999999,-0.0382851616,10.2317094376,-0.04908738521234052,-0.037088246604879506,0.025089107997418487,-0.005014713514655194,0.0005017821599483697,-0.06734823934103437
0.37328032559999996,1.0911271056,9.7435736272,0.03490658503988659,-0.02945243112740431,0.006544984694978736,0.1272148512751297,0.00013089969389957473,-0.04292256420394241
0.44027935839999993,-0.14356935599999998,8.8917287816,-0.04254240051736178,-0.039269908169872414,0.00545415391248228,-0.01927048713443297,0.0001090830782496456,-0.05752085752831379
0.5934200047999999,0.14356935599999998,10.7677017,-0.02945243112740431,-0.03490658503988659,0.013089969389957472,0.014593800151818138,0.00026179938779914946,-0.06366053299954279
0.028713871199999998,0.8901300072,10.3752787936,-0.003272492347489368,-0.003272492347489368,0.018544123302439753,0.09800765685767437,0.00037088246604879505,-0.003223878616502306
0.39242290639999994,0.37328032559999996,11.160124606399998,0.07526732399225546,0.01090830782496456,0.031634092692397225,0.03852774221950584,0.0006326818538479446,-0.038779446215710354
0.45942193919999996,0.2009970984,9.7818587888,0.0719948316447661,0.006544984694978736,0.04145156973486533,0.023671179419662864,0.0008290313946973066,-0.05235795730982465
0.5742774239999999,-0.45942193919999996,10.289137179999999,-0.04690572364734761,0.02181661564992912,0.02945243112740431,-0.05070489454201404,0.0005890486225480862,-0.06474767671852759
0.430708068,0.6987041991999999,10.4901342784,-0.07090400086226964,-0.00545415391248228,0.018544123302439753,0.07610520051415001,0.00037088246604879505,-0.04830891757934512
-0.1722832272,0.5072783912,10.289137179999999,-0.037088246604879506,0.0,0.01090830782496456,0.05645059461276742,0.0002181661564992912,0.018435430648986766
0.5072783912,-0.047856451999999994,9.4181497536,-0.004363323129985824,0.006544984694978736,-0.003272492347489368,-0.0056944100075335385,-6.544984694978737e-05,-0.06174620745473988
0.5455635528,-0.41156548719999997,10.030712339199999,-0.018544123302439753,-0.001090830782496456,-0.002181661564992912,-0.047012551147930244,-4.363323129985824e-05,-0.06257543611924771
0.6795616184,0.4498506487999999,10.7677017,-0.038179077387375956,-0.014180800172453928,0.025089107997418487,0.0475680396254975,0.0005017821599483697,-0.07290974700178346
0.29671000239999995,0.8709874263999998,10.2987084704,-0.019634954084936207,-0.019634954084936207,0.037088246604879506,0.09629802026031245,0.0007417649320975901,-0.03327267117790864
0.5359922624,-0.5264209719999999,10.164710404799997,0.031634092692397225,0.014180800172453928,0.016362461737446838,-0.059014995129080663,0.00032724923474893676,-0.059668341683911906
0.5551348432,-0.0765703232,10.222138147199999,0.00545415391248228,0.008726646259971648,0.015271630954950384,-0.008412434577350114,0.0003054326190990077,-0.06206165804886513
0.42113677759999996,0.4498506487999999,10.2317094376,0.055632369907319255,0.039269908169872414,0.007635815477475192,0.05111896029861106,0.00015271630954950385,-0.046003396412652074
0.3541377448,-0.2775674216,10.336993631999999,0.07635815477475191,0.04254240051736178,0.007635815477475192,-0.029928732540814698,0.00015271630954950385,-0.03773212239374539
0.5359922624,-0.4881358104,10.2795658896,0.039269908169872414,0.020725784867432664,0.02399827721492203,-0.05396791545244975,0.00047996554429844063,-0.05885896888186062
0.4881358104,0.7082754896,10.7677017,0.05126904677733343,-0.004363323129985824,0.02399827721492203,0.07518183139255044,0.00047996554429844063,-0.050795967624817126
0.0191425808,0.9188438783999999,10.1072826624,0.09272061651219876,-0.014180800172453928,0.018544123302439753,0.10361063447131612,0.00037088246604879505,-0.0003440550796293205
0.3541377448,-0.10528419439999999,10.920842346399999,0.016362461737446838,-0.01090830782496456,0.015271630954950384,-0.011260850159641362,0.0003054326190990077,-0.03682395525845577
-0.3158525832,1.3208380752,10.470991697599999,-0.039269908169872414,-0.02945243112740431,0.022907446432425576,0.14321205269908596,0.0004581489286485115,0.033514318968071395
-0.33499516399999996,1.0049854919999999,9.8010013696,-0.019634954084936207,-0.006544984694978736,0.014180800172453928,0.11696359483584412,0.0002836160034490786,0.038562890624638115
1.1964112999999998,-0.3158525832,10.509276859199998,-0.0818123086872342,-0.04145156973486533,0.011999138607461015,-0.035242172729818534,0.00023998277214922032,-0.13144103062124918
0.8997012975999998,0.0861416136,10.222138147199999,-0.05345070834232634,-0.06654067773228381,0.019634954084936207,0.008352166195313308,0.00039269908169872416,-0.1016425874230818
0.1722832272,0.047856451999999994,9.427721044,0.018544123302439753,-0.03599741582238305,0.008726646259971648,0.0051112310968923335,0.00017453292519943296,-0.020574524432964772
0.33499516399999996,-0.41156548719999997,9.887142983199999,0.050178215994836975,-0.00545415391248228,0.0,-0.047779640869250864,0.0,-0.03779389893082337
0.8039883936,-0.3541377448,10.930413636799999,0.02945243112740431,-0.009817477042468103,0.011999138607461015,-0.03730630223752191,0.00023998277214922032,-0.08351525960441508
0.1531406464,0.3158525832,10.5188481496,0.09272061651219876,-0.009817477042468103,0.017453292519943295,0.03420599001055371,0.00034906585039886593,-0.01485701254390613
0.49770710079999997,-0.028713871199999998,9.9158568544,0.07308566242726255,-0.002181661564992912,0.015271630954950384,-0.0033610396804673705,0.0003054326190990077,-0.056036050424737374
0.38285161599999995,1.2346964615999998,10.0881400816,0.05890486225480862,-0.037088246604879506,0.018544123302439753,0.13882863767965634,0.00037088246604879505,-0.04199121959893773
0.0,1.5984054967999999,9.667003304,0.007635815477475192,-0.0272707695624114,0.011999138607461015,0.18723974827373874,0.00023998277214922032,0.00014966198335851377
-0.11485548479999999,0.71784678,8.796015877599999,0.05890486225480862,-0.011999138607461015,0.001090830782496456,0.09307670546117539,2.181661564992912e-05,0.016067101405060062
0.33499516399999996,1.1389835575999998,9.676574594399998,0.05235987755982989,-0.004363323129985824,-0.003272492347489368,0.1341769777528673,-6.544984694978737e-05,-0.03835691499947844
0.5551348432,-0.2679961312,10.6337036344,-0.04363323129985824,-0.02399827721492203,0.009817477042468103,-0.029344214900323646,0.00019634954084936208,-0.06060479133516174
1.3495519463999999,0.22971096959999998,10.9016997656,-0.025089107997418487,-0.022907446432425576,0.022907446432425576,0.023693160698222672,0.0004581489286485115,-0.1415987995754855
0.28713871199999996,0.9379864591999999,8.6237326504,-0.007635815477475192,0.02181661564992912,0.018544123302439753,0.12457853972988009,0.00037088246604879505,-0.038066897885367275
0.6891329088,-0.2584248408,9.379864591999999,-0.0719948316447661,0.004363323129985824,0.016362461737446838,-0.03147763819868667,0.00032724923474893676,-0.0854180629559393
0.6125625856,0.12442677519999999,10.394421374399998,-0.04036073895236887,-0.016362461737446838,-0.004363323129985824,0.013395862223739837,-8.726646259971648e-05,-0.06823917154076513
0.5838487144,-0.3637090351999999,10.825129442399998,-0.04908738521234052,-0.025089107997418487,0.002181661564992912,-0.03897841152356287,4.363323129985824e-05,-0.0626720007420678
0.8039883936,0.5455635528,11.5621188032,-0.04581489286485115,-0.001090830782496456,0.017453292519943295,0.05400906493573637,0.00034906585039886593,-0.08036465278065955
-0.1531406464,0.32542387359999997,10.0402836296,0.05999569303730508,0.038179077387375956,0.00545415391248228,0.03787652291358838,0.0001090830782496456,0.018643605898765687
1.387837108,-0.9954142015999999,9.121439751199999,-0.05999569303730508,-0.01090830782496456,0.017453292519943295,-0.12477359442335044,0.00034906585039886593,-0.17319533939514278
1.2825529135999998,0.8805587167999999,9.3415794304,0.0818123086872342,-0.03490658503988659,0.004363323129985824,0.10701423631832169,8.726646259971648e-05,-0.1540659930741056
-0.2584248408,0.8901300072,10.1742816952,-0.0272707695624114,0.017453292519943295,0.004363323129985824,0.1003416038364378,8.726646259971648e-05,0.028454591402655268
-0.32542387359999997,-0.047856451999999994,11.8301149344,-0.050178215994836975,0.08290313946973066,0.001090830782496456,-0.0030106540470557375,2.181661564992912e-05,0.030530251911330915
0.3637090351999999,-0.42113677759999996,10.959127508,-0.06544984694978735,0.03490658503988659,0.009817477042468103,-0.04332935868219131,0.00019634954084936208,-0.03927123206724439
0.5647061335999999,0.5551348432,9.7244310464,-0.10690141668465268,0.04690572364734761,0.015271630954950384,0.06626487050874358,0.0003054326190990077,-0.06845712603015769
0.11485548479999999,0.5264209719999999,10.5954184728,-0.05672320068981571,0.06544984694978735,0.007635815477475192,0.05816951540098778,0.00015271630954950385,-0.013517835989553289
0.2009970984,-0.8997012975999998,9.5521478192,0.008726646259971648,0.04363323129985824,0.00545415391248228,-0.10675923530716079,0.0001090830782496456,-0.02383164925446624
0.4019941968,-0.41156548719999997,11.121839444799999,-0.015271630954950384,0.032724923474893676,0.004363323129985824,-0.041744045053330806,8.726646259971648e-05,-0.041671644087747046
0.9092725879999999,-0.028713871199999998,10.8729858944,-0.009817477042468103,-0.025089107997418487,0.037088246604879506,-0.003517925019505761,0.0007417649320975901,-0.09579884033077934
0.42113677759999996,-0.6221338759999999,10.671988795999997,-0.06872233929727672,0.028361600344907856,0.016362461737446838,-0.0661708466775064,0.00032724923474893676,-0.04646697039700204
-0.12442677519999999,0.7465606511999999,10.1072826624,0.017453292519943295,0.03381575425739013,0.003272492347489368,0.08515085312512194,6.544984694978737e-05,0.014409967400384693
0.1339980656,0.37328032559999996,9.6000042712,0.017453292519943295,0.014180800172453928,0.003272492347489368,0.04481254545863283,6.544984694978737e-05,-0.01563963522719054
0.11485548479999999,-0.5168496816,10.671988795999997,0.006544984694978736,-0.002181661564992912,0.011999138607461015,-0.05549668897342437,0.00023998277214922032,-0.012189529800397725
0.2775674216,-0.21056838879999998,10.700702667199998,0.002181661564992912,-0.04799655442984406,0.014180800172453928,-0.023487145485246812,0.0002836160034490786,-0.029668933632602736
0.0,0.8805587167999999,8.719445554399998,0.026179938779914945,-0.008726646259971648,0.022907446432425576,0.11516158086407154,0.0004581489286485115,0.0005131268000863329
0.5359922624,0.0382851616,9.705288465599999,-0.05781403147231216,0.06763150851478027,0.00545415391248228,0.005845931201457972,0.0001090830782496456,-0.06435372067544953
-0.5551348432,-0.2584248408,10.0115697584,0.02399827721492203,0.0,0.013089969389957472,-0.02957251631003853,0.00026179938779914946,0.06392452507612073
-0.5551348432,-0.028713871199999998,11.045269121599999,-0.001090830782496456,-0.032724923474893676,0.016362461737446838,-0.0036203851261843853,0.00032724923474893676,0.05752368170111388
-0.1722832272,0.1531406464,9.9828558872,0.05672320068981571,-0.0719948316447661,0.02181661564992912,0.016166285226796338,0.0004363323129985824,0.02088359390312948
-0.37328032559999996,-0.71784678,10.164710404799997,0.020725784867432664,-0.04254240051736178,0.015271630954950384,-0.08162593750373855,0.0003054326190990077,0.042364562200319124
-0.6125625856,0.047856451999999994,10.336993631999999,0.015271630954950384,-0.017453292519943295,0.00545415391248228,0.004963042334128842,0.0001090830782496456,0.06812538718908498
-0.0095712904,-0.28713871199999996,10.4997055688,-0.02945243112740431,-0.003272492347489368,0.01090830782496456,-0.0313940419716655,0.0002181661564992912,0.000466931996541365
-0.09571290399999999,0.0191425808,10.394421374399998,0.015271630954950384,-0.01090830782496456,0.017453292519943295,0.0018965365677012214,0.00034906585039886593,0.010850716800784359
-0.3158525832,-0.29671000239999995,10.269994599199999,0.028361600344907856,-0.025089107997418487,0.014180800172453928,-0.03358914130044649,0.0002836160034490786,0.03577260814062064
0.028713871199999998,-0.0191425808,10.289137179999999,0.014180800172453928,-0.018544123302439753,0.02181661564992912,-0.0024953983388367527,0.0004363323129985824,-0.0029199464532863747
-0.18185451759999996,0.0191425808,10.9782700888,0.0272707695624114,0.007635815477475192,0.02399827721492203,0.002147769095668906,0.00047996554429844063,0.019514779116547344
-0.22971096959999998,-0.3062812928,11.0261265408,0.002181661564992912,0.0,0.017453292519943295,-0.03182280542389178,0.00034906585039886593,0.02390334800941946
-0.19142580799999998,0.09571290399999999,10.1742816952,-0.028361600344907856,0.02181661564992912,0.011999138607461015,0.011207302640485941,0.00023998277214922032,0.021000645458648874
-0.0382851616,0.2584248408,9.772287498399999,0.016362461737446838,0.0,-0.002181661564992912,0.03029628962288208,-4.363323129985824e-05,0.004808497640173384
-0.2009970984,0.0669990328,9.9732845968,0.017453292519943295,-0.015271630954950384,0.001090830782496456,0.007398649610702315,2.181661564992912e-05,0.023432705842498132
-0.28713871199999996,-0.21056838879999998,10.624132343999998,0.007635815477475192,-0.017453292519943295,0.006544984694978736,-0.023050951833640435,0.00013089969389957473,0.031106739157541696
0.2584248408,0.0095712904,10.078568791199999,0.004363323129985824,-0.006544984694978736,0.019634954084936207,0.0009599568999531663,0.00039269908169872416,-0.029290479913528396
-0.2584248408,-0.6029912951999999,10.336993631999999,0.00545415391248228,0.008726646259971648,0.0272707695624114,-0.06659836860859167,0.000545415391248228,0.028700238253853188
-0.32542387359999997,-0.28713871199999996,10.4901342784,-0.009817477042468103,0.026179938779914945,0.00545415391248228,-0.030845345735168575,0.0001090830782496456,0.035331360001353486
0.14356935599999998,0.23928225999999997,9.3702933016,0.06326818538479445,-0.004363323129985824,0.006544984694978736,0.029170520837342694,0.00013089969389957473,-0.016310289481376562
-0.22013967919999997,0.22971096959999998,10.470991697599999,-0.020725784867432664,0.003272492347489368,0.013089969389957472,0.025199025211196716,0.00026179938779914946,0.023675894729008686
0.057427742399999995,0.23928225999999997,9.772287498399999,0.017453292519943295,0.0,0.019634954084936207,0.028053052393015192,0.00039269908169872416,-0.006389898109039423
-0.16271193679999998,0.18185451759999996,10.04985492,-0.020725784867432664,-0.008726646259971648,0.015271630954950384,0.02056231041365914,0.0003054326190990077,0.018142036929696438
-0.0191425808,-0.11485548479999999,10.0402836296,0.022907446432425576,0.011999138607461015,0.003272492347489368,-0.012872907737271096,6.544984694978737e-05,0.0026336174684007336
-0.0765703232,-0.24885355039999998,10.346564922399999,0.04254240051736178,-0.003272492347489368,-0.001090830782496456,-0.027620165094082102,-2.181661564992912e-05,0.00931163591948296
-0.028713871199999998,0.32542387359999997,10.021141048799999,0.04581489286485115,-0.006544984694978736,0.006544984694978736,0.03707080457175623,0.00013089969389957473,0.004179658799215839
-0.0669990328,-0.0861416136,10.145567823999999,0.028361600344907856,0.015271630954950384,0.030543261909900768,-0.009429914237905901,0.0006108652381980154,0.008122871733270885
0.44027935839999993,0.11485548479999999,10.145567823999999,0.03599741582238305,-0.001090830782496456,0.03490658503988659,0.012950694894482688,0.0006981317007977319,-0.048988501274006814
0.1722832272,0.4498506487999999,10.384850083999998,-0.001090830782496456,0.0,0.022907446432425576,0.04960772661365171,0.0004581489286485115,-0.01901241152614233
0.18185451759999996,0.2775674216,9.9445707256,-0.003272492347489368,0.00545415391248228,-0.007635815477475192,0.03208276905619455,-0.00015271630954950385,-0.021008795951654006
-0.29671000239999995,0.14356935599999998,10.700702667199998,-0.013089969389957472,0.01090830782496456,-0.004363323129985824,0.015587418735486821,-8.726646259971648e-05,0.031506485858906676
0.2679961312,-0.22013967919999997,9.9445707256,0.03599741582238305,-0.017453292519943295,0.007635815477475192,-0.025704697368791777,0.00015271630954950385,-0.030160687056536604
0.057427742399999995,-0.41156548719999997,10.480562987999999,0.001090830782496456,0.0,0.02181661564992912,-0.04497631538554711,0.0004363323129985824,-0.006252710777968126
0.10528419439999999,0.2679961312,9.887142983199999,0.044724062082354694,-0.015271630954950384,0.018544123302439753,0.030753708094981385,0.00037088246604879505,-0.011320860105187111
-0.1339980656,0.7274180703999998,10.1838529856,0.025089107997418487,0.003272492347489368,0.019634954084936207,0.08177647644950838,0.00039269908169872416,0.01553040248506762
-0.24885355039999998,0.028713871199999998,9.925428144799998,0.031634092692397225,0.011999138607461015,0.01090830782496456,0.003550262364934925,0.0002181661564992912,0.029344657045988657
-0.10528419439999999,-0.18185451759999996,9.858429112,0.020725784867432664,0.01090830782496456,0.008726646259971648,-0.020922048787599408,0.00017453292519943296,0.012641612265463
-0.21056838879999998,0.3637090351999999,9.848857821600001,0.04581489286485115,-0.017453292519943295,0.003272492347489368,0.04195627678622043,6.544984694978737e-05,0.025377211933168116
0.23928225999999997,0.3062812928,10.585847182399998,0.04690572364734761,-0.002181661564992912,0.013089969389957472,0.03310287395120459,0.00026179938779914946,-0.0249676594444234
0.32542387359999997,-0.2584248408,11.00698396,-0.003272492347489368,-0.001090830782496456,0.018544123302439753,-0.026920543641732915,0.00037088246604879505,-0.03392419265794825
0.0765703232,0.47856451999999994,10.576275891999998,0.00545415391248228,-0.017453292519943295,0.019634954084936207,0.05147395517051141,0.00039269908169872416,-0.00818069547948994
0.0095712904,0.5168496816,9.638289432799999,0.015271630954950384,-0.007635815477475192,0.019634954084936207,0.06124083501740252,0.00039269908169872416,-0.0008369929769310434
0.047856451999999994,-0.18185451759999996,10.155139114399999,-0.001090830782496456,-0.001090830782496456,0.013089969389957472,-0.02053982450033571,0.00026179938779914946,-0.005420642384049559
-0.1531406464,-0.0095712904,9.858429112,-0.015271630954950384,0.004363323129985824,0.011999138607461015,-0.0010270179251151276,0.00023998277214922032,0.017499866590448526
0.1339980656,0.3062812928,9.829715240799999,0.0,-0.004363323129985824,0.004363323129985824,0.035608187542965526,8.726646259971648e-05,-0.01561250636034277
-0.09571290399999999,-0.1339980656,10.116853952799998,-0.008726646259971648,-0.004363323129985824,0.006544984694978736,-0.015262323618718673,0.00013089969389957473,0.01066889066807427
0.4498506487999999,-0.0861416136,10.7102739576,0.06326818538479445,-0.028361600344907856,0.009817477042468103,-0.009772167920333169,0.00019634954084936208,-0.046860619320196875
0.0382851616,0.0669990328,10.413563955199999,-0.006544984694978736,0.00545415391248228,0.013089969389957472,0.007479418378954241,0.00026179938779914946,-0.004341100491927166
-0.2009970984,0.23928225999999997,10.164710404799997,0.017453292519943295,0.011999138607461015,0.015271630954950384,0.027205616005778043,0.0003054326190990077,0.022992206369688694
-0.18185451759999996,-0.3158525832,9.848857821600001,0.003272492347489368,0.02181661564992912,0.006544984694978736,-0.036309282934480706,0.00013089969389957473,0.021209659352769306
-0.11485548479999999,0.2584248408,10.356136212800001,0.03599741582238305,0.007635815477475192,0.013089969389957472,0.02873866509540677,0.00026179938779914946,0.013409934325200743
-0.2775674216,0.5838487144,10.193424275999998,0.016362461737446838,-0.019634954084936207,0.004363323129985824,0.06517812292365605,8.726646259971648e-05,0.03146531051753079
-0.0669990328,0.22013967919999997,10.2029955664,-0.018544123302439753,-0.019634954084936207,0.013089969389957472,0.024335576975944392,0.00026179938779914946,0.007159450282706553
-0.18185451759999996,0.3062812928,10.3752787936,-0.02399827721492203,-0.006544984694978736,0.02399827721492203,0.033689663558985415,0.00047996554429844063,0.019604070431121178
-0.33499516399999996,-0.057427742399999995,10.212566856799999,-0.006544984694978736,-0.006544984694978736,0.008726646259971648,-0.006571975301965781,0.00017453292519943296,0.03744626059773936
-0.24885355039999998,0.41156548719999997,11.035697831199998,-0.05345070834232634,-0.01090830782496456,-0.002181661564992912,0.04250219466170148,-4.363323129985824e-05,0.024770293010371328
0.1722832272,0.37328032559999996,9.4851487864,0.013089969389957472,-0.020725784867432664,0.003272492347489368,0.04466709230247818,6.544984694978737e-05,-0.02053885930676926
-0.22013967919999997,0.3637090351999999,10.269994599199999,-0.022907446432425576,0.01090830782496456,0.004363323129985824,0.04077913503367084,8.726646259971648e-05,0.024094833509336906
-0.11485548479999999,-0.47856451999999994,10.1264252432,0.044724062082354694,0.011999138607461015,0.006544984694978736,-0.05387935523062644,0.00013089969389957473,0.013858698711199536
0.49770710079999997,0.5264209719999999,9.4660062056,0.02399827721492203,-0.04254240051736178,0.007635815477475192,0.06282694313350631,0.00015271630954950385,-0.05963187431580265
0.46899322959999995,0.7082754896,10.6337036344,0.038179077387375956,-0.0545415391248228,0.028361600344907856,0.0751440246906018,0.0005672320068981572,-0.04964736895624822
0.7274180703999998,-0.047856451999999994,9.5042913672,0.10144726277217041,-0.06654067773228381,0.015271630954950384,-0.007074116246318445,0.0003054326190990077,-0.08554338956701565
-0.6987041991999999,0.7274180703999998,11.2654088008,0.04254240051736178,0.020725784867432664,-0.004363323129985824,0.07429649679719613,-8.726646259971648e-05,0.0716678511564682
0.1722832272,0.12442677519999999,11.131410735199998,0.007635815477475192,-0.019634954084936207,0.0,0.012423652128440264,0.0,-0.017583395362875433
0.8997012975999998,0.4019941968,8.939585233599999,0.17780541754692233,-0.055632369907319255,0.00545415391248228,0.050404309774575745,0.0001090830782496456,-0.11134041602974207
0.23928225999999997,-0.7752745223999999,11.8014010632,-0.08508480103472356,0.008726646259971648,0.01090830782496456,-0.07500007144274455,0.0002181661564992912,-0.024848824130691744
0.49770710079999997,0.9571290399999999,12.5479617144,-0.02181661564992912,0.0,0.0272707695624114,0.0872388174911538,0.000545415391248228,-0.04572437575636826
-0.8901300072,0.5742774239999999,12.9403846208,-0.001090830782496456,0.003272492347489368,0.02181661564992912,0.050885037134683696,0.0004363323129985824,0.07860158256082049
-0.0095712904,-0.16271193679999998,10.2029955664,-0.07963064712224129,0.039269908169872414,0.01090830782496456,-0.017503212091493494,0.0002181661564992912,-0.0004859299458520815
0.6317051664,-0.19142580799999998,9.198010074399999,-0.09599310885968812,0.037088246604879506,0.0,-0.02311802752976655,0.0,-0.08044083885828517
0.22971096959999998,-0.2775674216,9.2745803976,-0.05890486225480862,0.015271630954950384,-0.003272492347489368,-0.03398513004271987,-6.544984694978737e-05,-0.029517850105342025
0.46899322959999995,0.16271193679999998,8.6907316832,-0.008726646259971648,-0.001090830782496456,0.007635815477475192,0.021430480216556004,0.00015271630954950385,-0.06193937105012257
0.6029912951999999,0.5551348432,10.470991697599999,0.020725784867432664,0.007635815477475192,0.011999138607461015,0.06084521845121083,0.00023998277214922032,-0.06541838861938436
-0.28713871199999996,0.10528419439999999,10.777272990399998,0.03599741582238305,0.0,0.00545415391248228,0.01119420117820911,0.0001090830782496456,0.031227483431322228
0.38285161599999995,1.0049854919999999,9.035298137599998,0.13199052468207118,-0.001090830782496456,0.015271630954950384,0.1269156851412093,0.0003054326190990077,-0.045642628895975215
0.23928225999999997,-0.19142580799999998,10.269994599199999,0.002181661564992912,0.04145156973486533,0.004363323129985824,-0.020544173865106142,8.726646259971648e-05,-0.026646647732050433
0.8231309743999999,1.0719845248,10.662417505599999,0.06435901616729091,0.007635815477475192,0.006544984694978736,0.11497257102644631,0.00013089969389957473,-0.08658618961091148
-0.3541377448,0.3158525832,12.921242039999997,-0.06654067773228381,0.039269908169872414,0.004363323129985824,0.028775382984242467,8.726646259971648e-05,0.030085145886917915
0.5072783912,-0.21056838879999998,11.447263318399997,0.0,0.007635815477475192,0.016362461737446838,-0.020926675950408893,0.00032724923474893676,-0.05073876702275422
-0.3062812928,0.2775674216,8.757730716,0.014180800172453928,-0.05890486225480862,0.05235987755982989,0.03515194741972668,0.0010471975511965978,0.04031726492469355
-0.047856451999999994,0.2584248408,10.001998467999998,0.026179938779914945,-0.07090400086226964,0.026179938779914945,0.028211084370754858,0.0005235987755982989,0.005994105547244381
-0.0861416136,0.047856451999999994,10.2317094376,-0.025089107997418487,-0.016362461737446838,-0.015271630954950384,0.005039011531208169,-0.0003054326190990077,0.009155478788401433
0.22013967919999997,-0.0382851616,8.9587278144,-0.04363323129985824,0.020725784867432664,-0.004363323129985824,-0.004490819977485192,-8.726646259971648e-05,-0.029007471214415572
0.71784678,0.0382851616,10.3752787936,-0.03490658503988659,0.0,0.0,0.0042284516207860825,0.0,-0.07984131101405381
0.0191425808,0.6699903279999999,10.4039926648,-0.006544984694978736,-0.007635815477475192,0.028361600344907856,0.07354259472176732,0.0005672320068981572,-0.002232321438376472
-0.8805587167999999,0.9284151687999999,10.863414604,0.020725784867432664,0.04690572364734761,0.018544123302439753,0.09861483691337986,0.00037088246604879505,0.0927532179917475
0.2009970984,0.2679961312,9.0735832992,0.038179077387375956,0.004363323129985824,0.014180800172453928,0.03392129249863739,0.0002836160034490786,-0.024620685840336467
0.21056838879999998,-0.5742774239999999,9.044869428,-0.028361600344907856,0.02945243112740431,-0.003272492347489368,-0.07208174713966706,-6.544984694978737e-05,-0.027174888878209378
-0.028713871199999998,0.0095712904,10.461420407199999,-0.04690572364734761,0.009817477042468103,0.0,0.0012408354233408537,0.0,0.0022258780993692833
0.2679961312,0.11485548479999999,11.4664058992,0.03490658503988659,-0.009817477042468103,0.013089969389957472,0.011285479964885896,0.00026179938779914946,-0.026092281176246533
-0.4881358104,0.3445664544,10.987841379199999,-0.05672320068981571,0.004363323129985824,0.015271630954950384,0.03600838418326228,0.0003054326190990077,0.04973721173701852
-1.1772687192,1.5122638831999997,9.8680004024,0.03381575425739013,0.01090830782496456,0.013089969389957472,0.17446882710021852,0.00026179938779914946,0.13517358655229003
-0.3445664544,0.1722832272,10.911271056,0.07963064712224129,0.007635815477475192,0.001090830782496456,0.01824156265801228,2.181661564992912e-05,0.03773104164818689
0.39242290639999994,0.1339980656,9.638289432799999,0.11562806294462433,-0.04363323129985824,0.0,0.015075061530378972,0.0,-0.044359381633220785
0.028713871199999998,0.7657032319999999,8.566304908,-0.003272492347489368,-0.032724923474893676,0.018544123302439753,0.10151530862014786,0.00037088246604879505,-0.0038899312502292584
-0.38285161599999995,-0.24885355039999998,10.0881400816,-0.013089969389957472,0.06654067773228381,0.0272707695624114,-0.026957438681665176,0.000545415391248228,0.04319762788711793
-0.21056838879999998,-0.0861416136,11.475977189599998,-0.06872233929727672,-0.01090830782496456,0.025089107997418487,-0.008815176163606825,0.0005017821599483697,0.01967606502267383
1.2634103328,0.39242290639999994,8.681160392799999,-0.05781403147231216,-0.05999569303730508,0.017453292519943295,0.050588777937238566,0.00034906585039886593,-0.16657438785683393
0.4019941968,0.44027935839999993,8.6237326504,-0.08399397025222712,0.001090830782496456,0.002181661564992912,0.058474643013681146,4.363323129985824e-05,-0.05495502020525623
0.9667003303999999,-1.4644074311999997,9.667003304,-0.09053895494720585,0.013089969389957472,-0.002181661564992912,-0.17202279079240676,-4.363323129985824e-05,-0.1147064773895572
0.16271193679999998,-0.4019941968,9.8967142736,-0.011999138607461015,0.011999138607461015,0.011999138607461015,-0.046285137893271475,0.00023998277214922032,-0.019057972073846925
0.0861416136,0.1339980656,11.035697831199998,-0.019634954084936207,0.0,0.009817477042468103,0.013913295676315291,0.00019634954084936208,-0.009328705230133821
0.22971096959999998,-0.10528419439999999,8.748159425599999,0.05999569303730508,-0.019634954084936207,0.016362461737446838,-0.01417528598262044,0.00032724923474893676,-0.028904681621376195
0.49770710079999997,-0.8518448456,8.183453292,0.028361600344907856,0.026179938779914945,-0.007635815477475192,-0.11834126705593452,-0.00015271630954950385,-0.06867832015807306
-0.7944171031999999,-0.047856451999999994,10.815558152,-0.09381144729469522,0.05126904677733343,-0.003272492347489368,-0.004065516558604743,-6.544984694978737e-05,0.08217861874993292
-0.5647061335999999,0.7944171031999999,10.0115697584,0.055632369907319255,0.028361600344907856,0.015271630954950384,0.09129405711848468,0.0003054326190990077,0.06545586124922328
0.5742774239999999,0.5551348432,10.432706535999998,0.006544984694978736,-0.0272707695624114,0.006544984694978736,0.0603833667267848,0.00013089969389957473,-0.06279720478968162
0.1722832272,-0.2775674216,10.892128475199998,0.028361600344907856,0.02181661564992912,0.011999138607461015,-0.028767791002248213,0.00023998277214922032,-0.017561923062855856
0.11485548479999999,0.4019941968,11.5716900936,-0.018544123302439753,0.016362461737446838,0.00545415391248228,0.040113183860519624,0.0001090830782496456,-0.011730087076268398
1.0432706535999998,0.39242290639999994,8.518448456,-0.0545415391248228,-0.013089969389957472,0.018544123302439753,0.05249551064682668,0.00037088246604879505,-0.14056956412148186
-0.14356935599999998,0.2679961312,8.9587278144,-0.026179938779914945,0.0,0.0,0.034269306347316404,0.0,0.017841124070463753
0.5264209719999999,-0.23928225999999997,10.729416538399999,-0.04363323129985824,0.008726646259971648,-0.007635815477475192,-0.025380377677760566,-0.00015271630954950385,-0.057018662707950696
0.6987041991999999,-0.861416136,10.413563955199999,-0.06217735460229799,0.022907446432425576,-0.003272492347489368,-0.09412650086989172,-6.544984694978737e-05,-0.07772894990028924
0.6317051664,-0.45942193919999996,10.719845247999999,0.006544984694978736,-0.016362461737446838,0.008726646259971648,-0.0494013377405955,0.00017453292519943296,-0.0672591697135874
0.6221338759999999,-0.2584248408,9.571290399999999,-0.05345070834232634,0.014180800172453928,0.019634954084936207,-0.030654262188312516,0.00039269908169872416,-0.0754004926972423
0.12442677519999999,0.12442677519999999,10.068997500799998,0.04799655442984406,-0.02181661564992912,0.006544984694978736,0.013732227472292139,0.00013089969389957473,-0.013218019762479353
0.10528419439999999,-0.047856451999999994,10.6911313768,0.031634092692397225,0.0272707695624114,-0.006544984694978736,-0.00459489281257691,-0.00013089969389957473,-0.010664249106019544
0.29671000239999995,0.24885355039999998,9.5904329808,-0.002181661564992912,0.017453292519943295,-0.001090830782496456,0.03006975048465817,-2.181661564992912e-05,-0.03547201635741033
0.4498506487999999,-0.6221338759999999,9.753144917599998,-0.001090830782496456,-0.006544984694978736,0.02181661564992912,-0.0731250781982794,0.0004363323129985824,-0.05273078354205266
0.49770710079999997,-0.6891329088,11.160124606399998,-0.009817477042468103,0.004363323129985824,0.016362461737446838,-0.07058454444886625,0.00032724923474893676,-0.051165919710719016
0.6699903279999999,-0.47856451999999994,10.0881400816,0.05126904677733343,-0.02181661564992912,0.015271630954950384,-0.05474720535412413,0.0003054326190990077,-0.07490286635893341
0.0861416136,-0.1531406464,9.169296203199998,-0.006544984694978736,-0.025089107997418487,0.003272492347489368,-0.01962843230067015,6.544984694978737e-05,-0.010891850558122163
0.19142580799999998,-0.5359922624,11.294122672,-0.0719948316447661,0.04036073895236887,0.001090830782496456,-0.053550592206649004,2.181661564992912e-05,-0.02080970875533378
-0.11485548479999999,0.3158525832,9.628718142399999,0.007635815477475192,0.002181661564992912,0.011999138607461015,0.03761896291110098,0.00023998277214922032,0.013810639709083769
0.7465606511999999,-0.6317051664,10.2987084704,-0.006544984694978736,-0.004363323129985824,0.02181661564992912,-0.07028607152104616,0.0004363323129985824,-0.08289644939391054
-0.1722832272,-0.3445664544,9.312865559199999,-0.017453292519943295,0.016362461737446838,0.015271630954950384,-0.04205766434194622,0.0003054326190990077,0.020839857254152477
0.028713871199999998,-0.5647061335999999,10.8347007328,-0.039269908169872414,0.016362461737446838,0.025089107997418487,-0.05935058483301691,0.0005017821599483697,-0.003802445422497463
0.1531406464,-0.10528419439999999,11.2749800912,0.03599741582238305,0.002181661564992912,0.011999138607461015,-0.010657328688789398,0.00023998277214922032,-0.014857033806859755
-0.3158525832,-0.0382851616,9.705288465599999,-0.002181661564992912,0.002181661564992912,0.018544123302439753,-0.004477593067894419,0.00037088246604879505,0.03723690270042823
0.1531406464,-0.5168496816,9.4851487864,-0.031634092692397225,-0.009817477042468103,0.014180800172453928,-0.06257214656419553,0.0002836160034490786,-0.019092182056217252
0.5455635528,-0.6029912951999999,9.5042913672,0.04036073895236887,-0.026179938779914945,0.009817477042468103,-0.07311740998602045,0.00019634954084936208,-0.06478290732998587
0.2584248408,-0.6508477471999999,10.5571333112,-0.04799655442984406,0.02945243112740431,0.02181661564992912,-0.06997918222586813,0.0004363323129985824,-0.02893252646655742
0.0095712904,-0.6795616184,10.528419439999999,-0.0545415391248228,0.006544984694978736,0.02399827721492203,-0.07373290323518168,0.00047996554429844063,-0.002108592076567633
0.1722832272,0.21056838879999998,10.145567823999999,0.011999138607461015,-0.02181661564992912,0.02945243112740431,0.023352134045631443,0.0005890486225480862,-0.01921770231664139
0.2775674216,-0.7274180703999998,11.045269121599999,0.00545415391248228,-0.015271630954950384,0.02181661564992912,-0.07565807736504188,0.0004363323129985824,-0.028621669824103076
0.29671000239999995,0.4498506487999999,10.3082797608,0.018544123302439753,0.017453292519943295,0.00545415391248228,0.05031783401702611,0.0001090830782496456,-0.03257973679762729
0.24885355039999998,0.33499516399999996,8.528019746399998,-0.031634092692397225,0.02399827721492203,-0.006544984694978736,0.045460754163689096,-0.00013089969389957473,-0.034023409188669744
0.41156548719999997,-0.3541377448,10.260423308799998,-0.10690141668465268,0.0545415391248228,0.002181661564992912,-0.03846648261592934,4.363323129985824e-05,-0.04800822708825493
0.49770710079999997,0.3062812928,9.236295236,0.07308566242726255,-0.03599741582238305,0.03490658503988659,0.03727980495143248,0.0006981317007977319,-0.060222853379561535
0.047856451999999994,0.49770710079999997,8.480163294399999,0.05672320068981571,-0.06654067773228381,0.03599741582238305,0.06587337967651176,0.000719948316447661,-0.005343840164894396
-0.3158525832,-0.22971096959999998,10.6145610536,-0.04145156973486533,0.02945243112740431,0.025089107997418487,-0.024217756665383124,0.0005017821599483697,0.033267995592466654
-0.028713871199999998,-0.32542387359999997,11.236694929599999,-0.008726646259971648,0.003272492347489368,0.003272492347489368,-0.03311323814298553,6.544984694978737e-05,0.002755958188892016
0.41156548719999997,-0.18185451759999996,9.1022971704,-0.011999138607461015,-0.04799655442984406,0.007635815477475192,-0.023831899684822754,0.00015271630954950385,-0.05200281795951505
-0.22971096959999998,0.1722832272,9.8680004024,0.038179077387375956,0.003272492347489368,0.008726646259971648,0.020068394289491108,0.00017453292519943296,0.027414478656985316
-0.33499516399999996,-0.33499516399999996,11.676974287999998,-0.013089969389957472,0.01090830782496456,0.013089969389957472,-0.03265181025648619,0.00026179938779914946,0.03259554072246787
0.5072783912,0.0669990328,10.825129442399998,0.02945243112740431,-0.009817477042468103,0.0272707695624114,0.006899802658214551,0.000545415391248228,-0.0530814129530891
0.4019941968,-0.6699903279999999,10.8825571848,-0.007635815477475192,-0.018544123302439753,0.025089107997418487,-0.07082342581314889,0.0005017821599483697,-0.042379875939693536
0.2584248408,0.0765703232,10.1838529856,0.020725784867432664,-0.009817477042468103,0.020725784867432664,0.0084233217901402,0.0004145156973486533,-0.028665399112832324
0.38285161599999995,-0.29671000239999995,9.647860723199999,0.01090830782496456,-0.025089107997418487,0.006544984694978736,-0.03572209397007354,0.00013089969389957473,-0.04521373657843873
0.9284151687999999,-0.0765703232,9.647860723199999,0.06326818538479445,-0.04908738521234052,0.009817477042468103,-0.010056489984024744,0.00019634954084936208,-0.10868963987528996
0.0191425808,0.5168496816,9.4660062056,0.011999138607461015,0.002181661564992912,0.015271630954950384,0.06254838182884476,0.0003054326190990077,-0.00207868893201149
-0.0191425808,-0.0191425808,9.619146851999998,0.05781403147231216,-0.008726646259971648,0.019634954084936207,-0.0024514682916563016,0.00039269908169872416,0.0034135765262601828
0.057427742399999995,-0.1722832272,10.7581304096,0.017453292519943295,-0.013089969389957472,0.019634954084936207,-0.01860595631493776,0.00039269908169872416,-0.005774060307896171
0.3445664544,-0.22971096959999998,9.925428144799998,-0.003272492347489368,-0.006544984694978736,0.015271630954950384,-0.026644256096089242,0.0003054326190990077,-0.03981859652922079
-0.33499516399999996,-0.0765703232,10.116853952799998,-0.01090830782496456,0.018544123302439753,0.0,-0.00830933526127064,0.0,0.037715477677580905
0.3637090351999999,-0.37328032559999996,10.8825571848,-0.06326818538479445,0.018544123302439753,0.004363323129985824,-0.038926942849540666,8.726646259971648e-05,-0.0395012924047606
0.6891329088,-0.44027935839999993,9.6095755616,0.04145156973486533,0.004363323129985824,0.007635815477475192,-0.05237989678142216,0.00015271630954950385,-0.0811386466006616
0.8709874263999998,-0.5934200047999999,10.145567823999999,-0.00545415391248228,-0.007635815477475192,0.020725784867432664,-0.0670986356053875,0.0004145156973486533,-0.0980754359608061
0.6508477471999999,-0.16271193679999998,9.6861458848,0.004363323129985824,-0.003272492347489368,0.03381575425739013,-0.01931190068994003,0.0006763150851478027,-0.07678637755188326
0.22013967919999997,-0.0095712904,11.303693962399999,-0.01090830782496456,0.022907446432425576,0.019634954084936207,-0.0005213064431504449,0.00039269908169872416,-0.02252770445232966
-0.4498506487999999,0.5264209719999999,11.112268154399999,-0.015271630954950384,0.037088246604879506,0.0,0.054971782127254745,0.0,0.04601282637661716
0.2584248408,0.0,9.848857821600001,-0.008726646259971648,0.015271630954950384,-0.003272492347489368,0.00029932396671702755,-6.544984694978737e-05,-0.03023190069236608
0.8039883936,0.057427742399999995,10.346564922399999,-0.006544984694978736,-0.022907446432425576,0.004363323129985824,0.005911257285960244,8.726646259971648e-05,-0.08899266222918008
0.7465606511999999,-0.45942193919999996,10.729416538399999,0.00545415391248228,0.009817477042468103,0.004363323129985824,-0.04884448149322096,8.726646259971648e-05,-0.07942579738749601
0.6221338759999999,-0.5359922624,10.4231352456,-0.011999138607461015,-0.022907446432425576,0.019634954084936207,-0.05932391587223058,0.00039269908169872416,-0.0684613629193024
0.7657032319999999,0.0765703232,10.3274223416,0.017453292519943295,-0.02181661564992912,0.02181661564992912,0.008068369075891311,0.0004363323129985824,-0.08446172727340542
0.2679961312,0.12442677519999999,11.054840412,0.011999138607461015,-0.00545415391248228,0.030543261909900768,0.012790305209639039,0.0006108652381980154,-0.027537390244610837
0.057427742399999995,0.24885355039999998,10.4231352456,0.02399827721492203,0.006544984694978736,0.017453292519943295,0.027481951350650485,0.00034906585039886593,-0.00584135578701
-0.22013967919999997,-0.1339980656,10.0402836296,0.0,0.039269908169872414,-0.008726646259971648,-0.014522841607780229,-0.00017453292519943296,0.025118675489934284
0.14356935599999998,-0.3541377448,9.925428144799998,0.05126904677733343,0.044724062082354694,-0.008726646259971648,-0.039992163047601594,-0.00017453292519943296,-0.01555887485247251
0.1722832272,-0.14356935599999998,10.4901342784,0.05999569303730508,0.008726646259971648,0.015271630954950384,-0.015511129965215335,0.0003054326190990077,-0.017640412370713985
-0.24885355039999998,0.0765703232,9.628718142399999,0.020725784867432664,-0.01090830782496456,0.03490658503988659,0.008898653911871663,0.0006981317007977319,0.030014806815018027
0.18185451759999996,-0.0382851616,10.030712339199999,-0.008726646259971648,-0.013089969389957472,0.025089107997418487,-0.004630265788502741,0.0005017821599483697,-0.020943802480256193
0.3445664544,-0.1531406464,10.1072826624,0.006544984694978736,-0.016362461737446838,0.011999138607461015,-0.017681733244964824,0.00023998277214922032,-0.038917421183772
0.18185451759999996,-0.3158525832,10.04985492,0.001090830782496456,-0.026179938779914945,-0.001090830782496456,-0.03651576597028922,-2.181661564992912e-05,-0.020701742470407267
0.6987041991999999,0.32542387359999997,10.777272990399998,-0.004363323129985824,-0.026179938779914945,0.001090830782496456,0.034077721744899696,2.181661564992912e-05,-0.07423914831553688
0.6221338759999999,0.14356935599999998,10.5475620208,-0.01090830782496456,-0.017453292519943295,0.013089969389957472,0.015254714394226385,0.00026179938779914946,-0.06771964583882917
0.4498506487999999,0.0095712904,10.777272990399998,-0.013089969389957472,-0.018544123302439753,0.022907446432425576,0.0006542219408145333,0.0004581489286485115,-0.04806008518956032
0.5934200047999999,-0.1531406464,10.7581304096,0.0,-0.0272707695624114,0.017453292519943295,-0.016845371141365802,0.00034906585039886593,-0.06313849288969811
0.23928225999999997,0.37328032559999996,10.2508520184,0.03381575425739013,-0.014180800172453928,0.017453292519943295,0.04143164559921248,0.00034906585039886593,-0.02606337702714389
0.45942193919999996,-0.19142580799999998,10.04985492,0.017453292519943295,0.014180800172453928,0.009817477042468103,-0.02154638082187188,0.00019634954084936208,-0.051996702229932225
0.09571290399999999,-0.2679961312,9.1501536224,-0.030543261909900768,0.003272492347489368,-0.001090830782496456,-0.03348864847305869,-2.181661564992912e-05,-0.012579638197492386
0.5264209719999999,-0.0765703232,10.6145610536,-0.031634092692397225,-0.019634954084936207,0.0,-0.00865099993505437,0.0,-0.0574028286695393
0.29671000239999995,0.6987041991999999,10.461420407199999,0.044724062082354694,-0.002181661564992912,-0.001090830782496456,0.07637790488092923,-2.181661564992912e-05,-0.03154331693948126
1.2442677519999998,-0.0765703232,11.428120737599999,0.08508480103472356,0.026179938779914945,0.002181661564992912,-0.0071645847118010485,4.363323129985824e-05,-0.12260472469860359
0.5264209719999999,-0.09571290399999999,11.5716900936,0.006544984694978736,0.19634954084936207,-0.013089969389957472,-0.005629542870038322,-0.00026179938779914946,-0.05196417676682314
0.6125625856,-0.6795616184,10.2795658896,-0.10035643198967395,0.1832595714594046,0.0,-0.07205224184901045,0.0,-0.07002360274823555
-0.3062812928,0.38285161599999995,8.288737486399999,0.016362461737446838,0.15926129424448257,-0.013089969389957472,0.05601305534952456,-0.00026179938779914946,0.04259971397702536
0.0382851616,-0.8135596839999999,6.632904247199999,-0.008726646259971648,0.055632369907319255,0.001090830782496456,-0.138763480904376,2.181661564992912e-05,-0.006736003100211854
0.0861416136,-0.7657032319999999,8.154739420799999,-0.05235987755982989,-0.039269908169872414,0.00545415391248228,-0.10805284544673056,0.0001090830782496456,-0.013077540418359665
-0.1531406464,-0.1722832272,8.3078800672,0.05999569303730508,-0.09708393964218458,0.003272492347489368,-0.02566266626831374,6.544984694978737e-05,0.022291852905044585
0.14356935599999998,0.3158525832,10.269994599199999,0.04254240051736178,-0.13308135546456762,0.015271630954950384,0.032623011364124516,0.0003054326190990077,-0.015176879598586716
-0.0382851616,0.047856451999999994,10.987841379199999,0.025089107997418487,-0.11562806294462433,0.017453292519943295,0.0027245799685633927,0.00034906585039886593,0.004484429738090482
-0.5838487144,0.0,11.2654088008,-0.008726646259971648,-0.0719948316447661,0.011999138607461015,-0.0014110987002374155,0.00023998277214922032,0.059164868528953314
-0.09571290399999999,0.14356935599999998,11.935399128799999,0.014180800172453928,-0.03490658503988659,0.0,0.013099235016681577,0.0,0.009466461231007039
0.5551348432,0.18185451759999996,12.413963648799998,0.07853981633974483,-0.007635815477475192,0.009817477042468103,0.016635873076202127,0.00019634954084936208,-0.04966473525999373
1.5122638831999997,0.0191425808,13.342378817599998,0.06217735460229799,-0.09599310885968812,0.011999138607461015,-0.0002373977829995583,0.00023998277214922032,-0.12811065529688698
1.67497582,1.3495519463999999,11.160124606399998,0.08508480103472356,-0.14944381720201447,0.038179077387375956,0.13497258430511647,0.0007635815477475192,-0.16782711114934154
-0.33499516399999996,0.37328032559999996,7.743173933599999,0.006544984694978736,-0.032724923474893676,0.009817477042468103,0.05455777089089377,0.00019634954084936208,0.04961606254052919
0.0669990328,-0.028713871199999998,6.9104716688,0.050178215994836975,0.05781403147231216,-0.004363323129985824,-0.003628239701546349,-8.726646259971648e-05,-0.010126047928323539
0.1339980656,-0.6508477471999999,9.0161555568,-0.05672320068981571,0.1265363707695889,-0.025089107997418487,-0.08009667307406147,-0.0005017821599483697,-0.018096923347141677
-0.10528419439999999,0.22971096959999998,9.111868460799998,0.007635815477475192,0.07090400086226964,-0.001090830782496456,0.030272229035617423,-2.181661564992912e-05,0.01338548913626938
0.3637090351999999,-0.11485548479999999,10.030712339199999,-0.007635815477475192,0.044724062082354694,0.008726646259971648,-0.012244005864820395,0.00017453292519943296,-0.04167912126138449
0.47856451999999994,-0.028713871199999998,10.394421374399998,-0.003272492347489368,0.026179938779914945,0.011999138607461015,-0.0026523778281961844,0.00023998277214922032,-0.05278525404675899
0.0861416136,-0.0765703232,10.7677017,0.0,0.017453292519943295,-0.002181661564992912,-0.007806511202304824,-4.363323129985824e-05,-0.009166897397445835
-0.2775674216,-0.028713871199999998,11.3706929952,0.019634954084936207,0.026179938779914945,0.0,-0.0023805932869704104,0.0,0.028351888740766166
0.0669990328,0.71784678,10.222138147199999,0.011999138607461015,0.07963064712224129,0.006544984694978736,0.08190046896163523,0.00013089969389957473,-0.007256941542855231
-0.12442677519999999,-0.0669990328,11.533404932,-0.013089969389957472,0.09381144729469522,-0.018544123302439753,-0.004817991818556386,-0.00037088246604879505,0.012105323278807735
0.29671000239999995,-0.3062812928,10.030712339199999,0.002181661564992912,0.02945243112740431,0.00545415391248228,-0.034401653240987526,0.0001090830782496456,-0.03382793971769764
-0.3445664544,0.49770710079999997,10.6911313768,0.04254240051736178,-0.030543261909900768,0.02181661564992912,0.05270897996044869,0.0004363323129985824,0.03771306440137094
-0.12442677519999999,-0.3541377448,9.8680004024,0.03599741582238305,-0.04908738521234052,0.030543261909900768,-0.04206850352407186,0.0006108652381980154,0.015144473786349472
-0.3062812928,0.430708068,9.638289432799999,0.007635815477475192,-0.03490658503988659,0.028361600344907856,0.050489532696340066,0.0005672320068981572,0.036515542438290575
-0.45942193919999996,-0.09571290399999999,8.719445554399998,0.018544123302439753,0.004363323129985824,-0.002181661564992912,-0.01249263000278461,-4.363323129985824e-05,0.06068160812155842
-0.6604190376,0.09571290399999999,10.336993631999999,0.015271630954950384,-0.002181661564992912,0.001090830782496456,0.010567265766802354,2.181661564992912e-05,0.07340810463164231
-0.5359922624,-0.09571290399999999,10.0881400816,0.026179938779914945,-0.022907446432425576,0.009817477042468103,-0.01132072417221133,0.00019634954084936208,0.06133676275319073
-0.5072783912,-0.3445664544,10.212566856799999,0.018544123302439753,-0.006544984694978736,0.02181661564992912,-0.038776190306782726,0.0004363323129985824,0.05720432435248859
-0.8422735551999999,0.0765703232,10.5188481496,0.001090830782496456,0.009817477042468103,0.020725784867432664,0.008533789979702484,0.0004145156973486533,0.09158027422995536
-0.71784678,0.0095712904,10.2508520184,0.018544123302439753,-0.009817477042468103,0.003272492347489368,0.0008775263362939889,6.544984694978737e-05,0.08047883071996495
-0.3637090351999999,-0.11485548479999999,9.5617191096,0.004363323129985824,-0.016362461737446838,0.007635815477475192,-0.014084794110847862,0.00015271630954950385,0.04364975784422146
-0.71784678,0.0191425808,9.6000042712,0.0,-0.015271630954950384,0.002181661564992912,0.0019856492566210646,4.363323129985824e-05,0.08552727094717087
-0.49770710079999997,-0.5455635528,10.030712339199999,0.014180800172453928,-0.006544984694978736,0.019634954084936207,-0.06239249513134764,0.00039269908169872416,0.05700605097684154
-0.33499516399999996,-0.28713871199999996,10.1742816952,0.03381575425739013,-0.004363323129985824,0.001090830782496456,-0.03241698402642823,2.181661564992912e-05,0.03836421518664782
-0.4498506487999999,-0.2584248408,10.260423308799998,0.013089969389957472,0.006544984694978736,0.002181661564992912,-0.028727297671524193,4.363323129985824e-05,0.050449213908785144
-0.2009970984,-0.32542387359999997,10.1072826624,0.0272707695624114,0.009817477042468103,0.008726646259971648,-0.036689845901453175,0.00017453292519943296,0.023307800195602395
-0.5551348432,-0.2009970984,10.585847182399998,-0.001090830782496456,0.020725784867432664,0.004363323129985824,-0.02134905142428012,8.726646259971648e-05,0.0600060462069745
-0.16271193679999998,0.0861416136,9.9445707256,0.050178215994836975,0.0,0.006544984694978736,0.009925873319110224,0.00013089969389957473,0.019730457726180345
-0.4498506487999999,0.42113677759999996,10.155139114399999,0.003272492347489368,0.01090830782496456,0.011999138607461015,0.04770806458126139,0.00023998277214922032,0.05074904532770214
0.0,-0.1531406464,9.8010013696,0.02945243112740431,-0.008726646259971648,0.020725784867432664,-0.018074516470916947,0.0004145156973486533,0.0005772676500971245
-0.32542387359999997,-0.42113677759999996,10.241280727999998,0.018544123302439753,-0.030543261909900768,0.013089969389957472,-0.0476938768276462,0.00026179938779914946,0.03673277204361672
-0.46899322959999995,-0.10528419439999999,11.0644117024,0.006544984694978736,-0.02181661564992912,0.00545415391248228,-0.011331317662325766,0.0001090830782496456,0.048669574571324786
-0.23928225999999997,-0.37328032559999996,10.815558152,-0.007635815477475192,-0.016362461737446838,0.017453292519943295,-0.039854311335013666,0.00034906585039886593,0.02518323928331225
-0.24885355039999998,0.4019941968,10.7102739576,-0.020725784867432664,0.016362461737446838,0.009817477042468103,0.04331076083790459,0.00019634954084936208,0.026195644808839385
0.0191425808,-0.0765703232,9.427721044,0.028361600344907856,0.00545415391248228,0.004363323129985824,-0.009199822602288663,8.726646259971648e-05,-0.001770764862438831
-0.16271193679999998,0.057427742399999995,9.638289432799999,0.0272707695624114,-0.01090830782496456,0.004363323129985824,0.006613816015138333,8.726646259971648e-05,0.01987747534373644
-0.3445664544,0.057427742399999995,9.8201439504,0.03490658503988659,-0.014180800172453928,0.009817477042468103,0.006423240688802387,0.00019634954084936208,0.04087455866985983
-0.6891329088,0.0191425808,10.624132343999998,0.019634954084936207,-0.02181661564992912,0.011999138607461015,0.0016371048741556783,0.00023998277214922032,0.0746104011110594
-0.6795616184,-0.47856451999999994,10.4231352456,0.009817477042468103,-0.002181661564992912,0.018544123302439753,-0.05261904088003306,0.00037088246604879505,0.07471929320366205
-0.33499516399999996,-0.11485548479999999,11.083554283199998,0.009817477042468103,0.00545415391248228,0.0,-0.01176744650756705,0.0,0.03481477845920433
-0.41156548719999997,0.5072783912,10.241280727999998,0.037088246604879506,0.04036073895236887,-0.003272492347489368,0.05750502336851037,-6.544984694978737e-05,0.046696678520371175
-0.1531406464,0.10528419439999999,9.9445707256,0.009817477042468103,0.009817477042468103,0.002181661564992912,0.012323895669106051,4.363323129985824e-05,0.01783647754352025
0.4881358104,-0.19142580799999998,10.624132343999998,-0.002181661564992912,0.0,0.013089969389957472,-0.02064489383131464,0.00026179938779914946,-0.052647408156121275
-0.28713871199999996,0.21056838879999998,10.222138147199999,0.017453292519943295,-0.009817477042468103,0.02181661564992912,0.02340924233189756,0.0004363323129985824,0.03251544091947476
-0.22013967919999997,0.0095712904,10.748559119199998,-0.006544984694978736,0.016362461737446838,0.009817477042468103,0.0013411096706959084,0.00019634954084936208,0.023337759178452266
-0.3158525832,0.057427742399999995,9.7340023368,0.0,0.04908738521234052,-0.00545415391248228,0.007722598268912747,-0.0001090830782496456,0.037169413582531646
-0.5168496816,-0.32542387359999997,10.413563955199999,0.00545415391248228,0.06326818538479445,-0.009817477042468103,-0.03455815573137945,-0.00019634954084936208,0.05690707409631163
-0.4019941968,-0.028713871199999998,10.8347007328,-0.009817477042468103,0.04908738521234052,0.002181661564992912,-0.002074758912871305,4.363323129985824e-05,0.042304238044959676
-0.1339980656,0.6317051664,9.571290399999999,-0.009817477042468103,0.016362461737446838,0.019634954084936207,0.07584160394795421,0.00039269908169872416,0.01581452699824341
0.18185451759999996,-0.22013967919999997,9.4085784632,0.02399827721492203,-0.01090830782496456,0.020725784867432664,-0.02702077187461913,0.0004145156973486533,-0.021669746115439287
0.4881358104,-0.2775674216,10.155139114399999,0.018544123302439753,-0.03490658503988659,0.003272492347489368,-0.031997345615589215,6.544984694978737e-05,-0.054655365968117445
-0.2584248408,0.9188438783999999,10.6337036344,-0.00545415391248228,0.00545415391248228,0.003272492347489368,0.09887857297316903,6.544984694978737e-05,0.02763282619815722
-0.09571290399999999,-0.0191425808,10.5667046016,0.02399827721492203,-0.016362461737446838,0.004363323129985824,-0.0023966360194031576,8.726646259971648e-05,0.010849735545045265
0.2584248408,-0.16271193679999998,10.4231352456,0.003272492347489368,0.01090830782496456,-0.006544984694978736,-0.017673233753905813,-0.00013089969389957473,-0.028337711047547988
0.23928225999999997,-0.32542387359999997,10.461420407199999,0.013089969389957472,-0.013089969389957472,-0.001090830782496456,-0.0358911200976023,-2.181661564992912e-05,-0.025936531023157443
-0.5264209719999999,-0.45942193919999996,10.1072826624,0.026179938779914945,-0.00545415391248228,0.007635815477475192,-0.05215814546668083,0.00015271630954950385,0.06008095684929192
0.22013967919999997,0.2584248408,8.3748791,0.07635815477475191,-0.002181661564992912,0.01090830782496456,0.03530570418162602,0.0002181661564992912,-0.028603335505499386
0.1339980656,0.8901300072,8.8151584584,0.0719948316447661,0.011999138607461015,0.006544984694978736,0.11555563848143627,0.00013089969389957473,-0.01591836078577492
-0.23928225999999997,0.5264209719999999,11.016555250399998,0.018544123302439753,0.06217735460229799,0.003272492347489368,0.0559341002848892,6.544984694978737e-05,0.025220763256714407
-0.4498506487999999,0.6891329088,10.4997055688,0.011999138607461015,0.04036073895236887,0.003272492347489368,0.07589385608051429,6.544984694978737e-05,0.049195707979572414
-0.3158525832,0.9858429111999999,9.4564349152,0.0,0.019634954084936207,0.003272492347489368,0.11941772065523122,6.544984694978737e-05,0.03805420481233385
-0.5072783912,0.8422735551999999,10.0594262104,0.016362461737446838,-0.008726646259971648,0.004363323129985824,0.09555293939470058,8.726646259971648e-05,0.05785722144679299
