accel_x,accel_y,accel_z,gyro_x,gyro_y,gyro_z,pitch,yaw,roll
0.42113677759999996,-0.6125625856,10.212566856799999,0.01090830782496456,-0.002181661564992912,0.011999138607461015,-0.06869396563440372,0.00023998277214922032,-0.04692905815643536
0.430708068,-0.5838487144,10.222138147199999,0.011999138607461015,-0.002181661564992912,0.008726646259971648,-0.06542196291093855,0.00017453292519943296,-0.047940810231372255
0.42113677759999996,-0.6029912951999999,10.222138147199999,0.01090830782496456,-0.003272492347489368,0.009817477042468103,-0.06758204431783375,0.00019634954084936208,-0.04688773441173743
0.42113677759999996,-0.6125625856,10.212566856799999,0.01090830782496456,0.0,0.008726646259971648,-0.06865120506772986,0.00017453292519943296,-0.04692905815643536
0.430708068,-0.5934200047999999,10.241280727999998,0.006544984694978736,0.001090830782496456,0.011999138607461015,-0.06630330500214876,0.00023998277214922032,-0.04795548904687146
0.42113677759999996,-0.6029912951999999,10.2029955664,0.017453292519943295,0.0,0.011999138607461015,-0.06764428491043967,0.00023998277214922032,-0.046847416596548334
0.41156548719999997,-0.5934200047999999,10.241280727999998,0.002181661564992912,0.003272492347489368,0.009817477042468103,-0.0662605444354749,0.00019634954084936208,-0.0459062968496487
0.430708068,-0.6029912951999999,10.193424275999998,0.015271630954950384,-0.002181661564992912,0.007635815477475192,-0.06775041358051488,0.00015271630954950385,-0.04800651599263357
0.45942193919999996,-0.5934200047999999,10.212566856799999,0.006544984694978736,-0.00545415391248228,0.014180800172453928,-0.06661764865922758,0.0002836160034490786,-0.051300445837592946
0.3541377448,-0.6699903279999999,10.2795658896,0.02181661564992912,0.007635815477475192,0.01090830782496456,-0.07443208476448784,0.0002181661564992912,-0.038950840674149924
0.37328032559999996,-0.5455635528,10.2029955664,0.020725784867432664,0.004363323129985824,0.003272492347489368,-0.06112934275493015,6.544984694978737e-05,-0.04143910104203154
0.41156548719999997,-0.6125625856,10.2317094376,0.018544123302439753,-0.002181661564992912,0.007635815477475192,-0.06856583183480558,0.00015271630954950385,-0.04562333804126973
0.41156548719999997,-0.5934200047999999,10.2508520184,0.019634954084936207,0.0,0.007635815477475192,-0.06626289549467833,0.00015271630954950385,-0.04552149848804564
0.4019941968,-0.5838487144,10.2317094376,0.01090830782496456,0.002181661564992912,0.008726646259971648,-0.06527541501175187,0.00017453292519943296,-0.044711985694579716
0.430708068,-0.5838487144,10.2029955664,0.01090830782496456,0.0,0.007635815477475192,-0.06550159824683616,0.00015271630954950385,-0.048052175847177
0.4498506487999999,-0.5838487144,10.222138147199999,0.01090830782496456,0.0,0.007635815477475192,-0.06537920234426468,0.00015271630954950385,-0.050100653320486105
0.42113677759999996,-0.5647061335999999,10.212566856799999,0.014180800172453928,0.0,0.009817477042468103,-0.06329919373792009,0.00019634954084936208,-0.046877595505464054
0.44027935839999993,-0.6125625856,10.222138147199999,0.014180800172453928,-0.001090830782496456,0.013089969389957472,-0.06860845867818012,0.00026179938779914946,-0.0489592670800879
0.42113677759999996,-0.6029912951999999,10.212566856799999,0.009817477042468103,-0.004363323129985824,0.011999138607461015,-0.06766655630543028,0.00023998277214922032,-0.0469530557015959
0.430708068,-0.5838487144,10.2029955664,0.014180800172453928,-0.002181661564992912,0.007635815477475192,-0.06554435881351002,0.00015271630954950385,-0.0479880349971662
0.41156548719999997,-0.5934200047999999,10.222138147199999,0.013089969389957472,0.002181661564992912,0.013089969389957472,-0.06640585026995109,0.00026179938779914946,-0.045778160045764175
0.430708068,-0.6125625856,10.193424275999998,0.009817477042468103,-0.003272492347489368,0.011999138607461015,-0.06884395924258986,0.00023998277214922032,-0.04811072583640892
0.44027935839999993,-0.6125625856,10.193424275999998,0.01090830782496456,-0.001090830782496456,0.007635815477475192,-0.068801198675916,0.00015271630954950385,-0.04916143518031841
0.430708068,-0.6029912951999999,10.2029955664,0.011999138607461015,-0.001090830782496456,0.01090830782496456,-0.06766566519377659,0.0002181661564992912,-0.0480255529957491
0.430708068,-0.5838487144,10.2029955664,0.009817477042468103,0.0,0.01090830782496456,-0.06550159824683616,0.0002181661564992912,-0.04807355613051393
0.430708068,-0.6125625856,10.222138147199999,0.013089969389957472,0.002181661564992912,0.006544984694978736,-0.06854431782816933,0.00013089969389957473,-0.047911547583478625
0.41156548719999997,-0.5838487144,10.212566856799999,0.004363323129985824,0.001090830782496456,0.006544984694978736,-0.06541896284390478,0.00013089969389957473,-0.04599463317603591
0.42113677759999996,-0.5838487144,10.2029955664,0.008726646259971648,-0.002181661564992912,0.011999138607461015,-0.06554435881351002,0.00023998277214922032,-0.047023585329265746
0.430708068,-0.6029912951999999,10.2029955664,0.009817477042468103,-0.003272492347489368,0.007635815477475192,-0.06770842576045046,0.00015271630954950385,-0.048068313562422964
0.44027935839999993,-0.5838487144,10.212566856799999,0.009817477042468103,-0.001090830782496456,0.008726646259971648,-0.06546172341057863,0.00017453292519943296,-0.049098791136974115
0.4498506487999999,-0.6029912951999999,10.2029955664,0.011999138607461015,0.001090830782496456,0.009817477042468103,-0.06762290462710274,0.00019634954084936208,-0.05016776791760817
0.44027935839999993,-0.5934200047999999,10.193424275999998,0.014180800172453928,0.002181661564992912,0.00545415391248228,-0.06659260837140839,0.0001090830782496456,-0.04910275378615071
0.44027935839999993,-0.6029912951999999,10.193424275999998,0.015271630954950384,0.001090830782496456,0.013089969389957472,-0.0676862727305041,0.00026179938779914946,-0.04907866521305508
0.430708068,-0.6029912951999999,10.222138147199999,0.008726646259971648,0.0,0.009817477042468103,-0.06751790346782297,0.00019634954084936208,-0.04799973777766187
0.430708068,-0.6029912951999999,10.1838529856,0.014180800172453928,0.001090830782496456,0.01090830782496456,-0.06774975953113321,0.0002181661564992912,-0.048073084310469937
0.42113677759999996,-0.6029912951999999,10.2029955664,0.014180800172453928,-0.001090830782496456,0.009817477042468103,-0.06766566519377659,0.00019634954084936208,-0.04691155744655912
0.430708068,-0.5742774239999999,10.2029955664,0.013089969389957472,0.002181661564992912,0.006544984694978736,-0.0643873214354836,0.00013089969389957473,-0.04801197376660953
0.430708068,-0.6125625856,10.212566856799999,0.015271630954950384,-0.001090830782496456,0.009817477042468103,-0.06867258535106678,0.00019634954084936208,-0.04791371571504718
0.44027935839999993,-0.6029912951999999,10.1838529856,0.015271630954950384,0.0,0.013089969389957472,-0.06777113981447014,0.00026179938779914946,-0.04912485373638111
0.42113677759999996,-0.5934200047999999,10.212566856799999,0.008726646259971648,-0.002181661564992912,0.006544984694978736,-0.06655350780921679,0.00013089969389957473,-0.0469770124557513
0.4498506487999999,-0.5934200047999999,10.2029955664,0.009817477042468103,-0.001090830782496456,0.01090830782496456,-0.06659438011776142,0.0002181661564992912,-0.05021328768127618
0.44027935839999993,-0.6029912951999999,10.1838529856,0.014180800172453928,-0.002181661564992912,0.007635815477475192,-0.067813900381144,0.00015271630954950385,-0.049146234019718044
0.42113677759999996,-0.5934200047999999,10.212566856799999,0.014180800172453928,-0.001090830782496456,0.011999138607461015,-0.06653212752587985,0.00023998277214922032,-0.04687011103906665
0.42113677759999996,-0.6029912951999999,10.222138147199999,0.01090830782496456,-0.002181661564992912,0.003272492347489368,-0.06756066403449683,6.544984694978737e-05,-0.04688773441173743
0.430708068,-0.5934200047999999,10.212566856799999,0.01090830782496456,-0.002181661564992912,0.01090830782496456,-0.06655350780921679,0.0002181661564992912,-0.048004548207348965
0.44027935839999993,-0.6029912951999999,10.193424275999998,0.011999138607461015,0.0,0.009817477042468103,-0.06770765301384102,0.00019634954084936208,-0.049142806063065876
0.4498506487999999,-0.5838487144,10.222138147199999,0.00545415391248228,0.0,0.009817477042468103,-0.06537920234426468,0.00019634954084936208,-0.050207554737170756
0.430708068,-0.5934200047999999,10.241280727999998,0.014180800172453928,-0.001090830782496456,0.009817477042468103,-0.06634606556882261,0.00019634954084936208,-0.04780582706351295
0.4498506487999999,-0.6029912951999999,10.2029955664,0.014180800172453928,0.0,0.00545415391248228,-0.06764428491043967,0.0001090830782496456,-0.05012500735093431
0.44027935839999993,-0.6029912951999999,10.193424275999998,0.016362461737446838,0.004363323129985824,0.011999138607461015,-0.06762213188049329,0.00023998277214922032,-0.049057284929718156
0.44027935839999993,-0.6029912951999999,10.2029955664,0.018544123302439753,0.004363323129985824,0.007635815477475192,-0.06755876377709194,0.00015271630954950385,-0.04896842188441113
0.42113677759999996,-0.6125625856,10.2029955664,0.011999138607461015,0.0,0.006544984694978736,-0.06871545162161678,0.00013089969389957473,-0.04695169341323165
0.42113677759999996,-0.6029912951999999,10.2029955664,0.01090830782496456,-0.002181661564992912,0.011999138607461015,-0.06768704547711353,0.00023998277214922032,-0.04697569829656992
0.42113677759999996,-0.5934200047999999,10.193424275999998,0.016362461737446838,-0.003272492347489368,0.008726646259971648,-0.06669950978809304,0.00017453292519943296,-0.04691549280552045
0.44027935839999993,-0.5934200047999999,10.212566856799999,0.014180800172453928,0.001090830782496456,0.014180800172453928,-0.066489366959206,0.0002836160034490786,-0.049010619503676696
0.42113677759999996,-0.6029912951999999,10.193424275999998,0.006544984694978736,0.002181661564992912,0.011999138607461015,-0.06766489244716715,0.00023998277214922032,-0.04710532440851467
0.430708068,-0.5742774239999999,10.2029955664,0.016362461737446838,0.001090830782496456,0.009817477042468103,-0.06440870171882054,0.00019634954084936208,-0.047947832916598744
0.44027935839999993,-0.5838487144,10.193424275999998,0.019634954084936207,-0.002181661564992912,0.008726646259971648,-0.06560572859039465,0.00017453292519943296,-0.04899851776163146
0.430708068,-0.5934200047999999,10.193424275999998,0.015271630954950384,0.00545415391248228,0.009817477042468103,-0.0665284675213976,0.00019634954084936208,-0.04800916561798722
0.4019941968,-0.5838487144,10.222138147199999,0.01090830782496456,0.0,0.008726646259971648,-0.06537920234426468,0.00017453292519943296,-0.04475387131102853
0.41156548719999997,-0.6029912951999999,10.1838529856,0.013089969389957472,-0.001090830782496456,0.00545415391248228,-0.06779252009780706,0.0001090830782496456,-0.045947912444772046
0.430708068,-0.5934200047999999,10.222138147199999,0.009817477042468103,0.002181661564992912,0.007635815477475192,-0.06640585026995109,0.00015271630954950385,-0.04798098495601697
0.4498506487999999,-0.6029912951999999,10.1838529856,0.015271630954950384,-0.002181661564992912,0.009817477042468103,-0.067813900381144,0.00019634954084936208,-0.050197916705712185
0.42113677759999996,-0.5934200047999999,10.193424275999998,0.01090830782496456,-0.001090830782496456,0.009817477042468103,-0.06665674922141918,0.00019634954084936208,-0.047022394222205104
0.41156548719999997,-0.6029912951999999,10.212566856799999,0.011999138607461015,0.001090830782496456,0.007635815477475192,-0.06755965488874563,0.00015271630954950385,-0.045839974867112936
0.42113677759999996,-0.5934200047999999,10.212566856799999,0.013089969389957472,-0.001090830782496456,0.007635815477475192,-0.06653212752587985,0.00015271630954950385,-0.04689149132240358
0.42113677759999996,-0.6029912951999999,10.2029955664,0.011999138607461015,0.0,0.011999138607461015,-0.06764428491043967,0.00023998277214922032,-0.046954318013232986
0.44027935839999993,-0.5934200047999999,10.2029955664,0.015271630954950384,0.0,0.008726646259971648,-0.0665729998344245,0.00017453292519943296,-0.049035263444941544
0.44027935839999993,-0.5934200047999999,10.2029955664,0.016362461737446838,0.004363323129985824,0.00545415391248228,-0.06648747870107677,0.0001090830782496456,-0.04901388316160462
0.430708068,-0.6029912951999999,10.2029955664,0.011999138607461015,-0.001090830782496456,0.008726646259971648,-0.06766566519377659,0.00017453292519943296,-0.0480255529957491
0.44027935839999993,-0.5838487144,10.2029955664,0.008726646259971648,0.002181661564992912,0.01090830782496456,-0.0654588376801623,0.0002181661564992912,-0.04916620307712991
0.44027935839999993,-0.5934200047999999,10.193424275999998,0.014180800172453928,-0.002181661564992912,0.007635815477475192,-0.06667812950475611,0.00015271630954950385,-0.04910275378615071
0.44027935839999993,-0.6029912951999999,10.1742816952,0.008726646259971648,0.0,0.009817477042468103,-0.06783474564575341,0.00019634954084936208,-0.049299410244956834
0.4498506487999999,-0.6029912951999999,10.1742816952,0.015271630954950384,-0.001090830782496456,0.007635815477475192,-0.06785612592909034,0.00015271630954950385,-0.0502451936217848
0.44027935839999993,-0.5742774239999999,10.212566856799999,0.013089969389957472,0.0,0.006544984694978736,-0.06436982467552195,0.00013089969389957473,-0.04903725810661779
0.44027935839999993,-0.6029912951999999,10.212566856799999,0.006544984694978736,0.001090830782496456,0.007635815477475192,-0.06755965488874563,0.00015271630954950385,-0.049157588327532926
0.430708068,-0.6029912951999999,10.2317094376,0.01090830782496456,0.002181661564992912,0.007635815477475192,-0.06741212890127155,0.00015271630954950385,-0.0479121245233913
0.41156548719999997,-0.5838487144,10.212566856799999,0.008726646259971648,0.002181661564992912,0.011999138607461015,-0.06539758256056784,0.00023998277214922032,-0.04590911204268818
0.45942193919999996,-0.5934200047999999,10.2029955664,0.011999138607461015,0.0,0.007635815477475192,-0.0665729998344245,0.00015271630954950385,-0.0512415618035178
0.44027935839999993,-0.5742774239999999,10.2029955664,0.02181661564992912,-0.003272492347489368,0.009817477042468103,-0.06449422285216826,0.00019634954084936208,-0.04891225481006126
0.44027935839999993,-0.5934200047999999,10.155139114399999,0.014180800172453928,0.00545415391248228,0.00545415391248228,-0.06677911561278928,0.0001090830782496456,-0.049288057159265625
0.42113677759999996,-0.6125625856,10.2317094376,0.015271630954950384,0.0,0.015271630954950384,-0.06852307126813172,0.0003054326190990077,-0.04675575124876851
0.45942193919999996,-0.5838487144,10.2029955664,0.015271630954950384,-0.001090830782496456,0.006544984694978736,-0.06552297853017308,0.00013089969389957473,-0.05118019399153649
0.4498506487999999,-0.5934200047999999,10.2029955664,0.009817477042468103,0.006544984694978736,0.008726646259971648,-0.06644471813440292,0.00017453292519943296,-0.05021328768127618
0.430708068,-0.5742774239999999,10.193424275999998,0.009817477042468103,0.001090830782496456,0.009817477042468103,-0.06446907184706129,0.00019634954084936208,-0.04812124035980379
0.45942193919999996,-0.5838487144,10.222138147199999,0.011999138607461015,0.0,0.009817477042468103,-0.06537920234426468,0.00019634954084936208,-0.05114837388522129
0.4498506487999999,-0.5838487144,10.222138147199999,0.016362461737446838,-0.002181661564992912,0.008726646259971648,-0.06542196291093855,0.00017453292519943296,-0.04999375190380145
0.45942193919999996,-0.5934200047999999,10.1742816952,0.016362461737446838,-0.00545415391248228,0.006544984694978736,-0.06686735940675653,0.00013089969389957473,-0.05130063103310021
0.46899322959999995,-0.5455635528,10.193424275999998,0.008726646259971648,-0.001090830782496456,0.006544984694978736,-0.06129361347437065,0.00013089969389957473,-0.05243948760722625
0.430708068,-0.6029912951999999,10.222138147199999,0.011999138607461015,0.001090830782496456,0.007635815477475192,-0.06749652318448604,0.00015271630954950385,-0.047935596927651085
0.42113677759999996,-0.5742774239999999,10.212566856799999,0.015271630954950384,-0.003272492347489368,0.007635815477475192,-0.06443396552553274,0.00015271630954950385,-0.046853761244026626
0.44027935839999993,-0.6029912951999999,10.1742816952,0.01090830782496456,0.003272492347489368,0.008726646259971648,-0.06777060479574262,0.00017453292519943296,-0.04925664967828298
0.430708068,-0.5934200047999999,10.1742816952,0.015271630954950384,-0.001090830782496456,0.007635815477475192,-0.0667818382734088,0.00015271630954950385,-0.04809964102423346
0.430708068,-0.6125625856,10.222138147199999,0.008726646259971648,0.00545415391248228,0.006544984694978736,-0.06848017697815854,0.00013089969389957473,-0.047997068716826345
0.41156548719999997,-0.6221338759999999,10.212566856799999,0.013089969389957472,0.001090830782496456,0.008726646259971648,-0.06969987479924832,0.00017453292519943296,-0.04581343879073205
0.44027935839999993,-0.5934200047999999,10.2029955664,0.01090830782496456,0.0,0.01090830782496456,-0.0665729998344245,0.0002181661564992912,-0.04912078457828927
0.430708068,-0.6029912951999999,10.2508520184,0.008726646259971648,0.001090830782496456,0.008726646259971648,-0.06730783298525916,0.00017453292519943296,-0.04786542924824777
0.41156548719999997,-0.6221338759999999,10.2029955664,0.019634954084936207,0.006544984694978736,0.007635815477475192,-0.06965821641590629,0.00015271630954950385,-0.045728168267510416
0.4498506487999999,-0.6221338759999999,10.193424275999998,0.017453292519943295,0.003272492347489368,0.01090830782496456,-0.06978772236711034,0.0002181661564992912,-0.050102302097093224
0.430708068,-0.5838487144,10.241280727999998,0.004363323129985824,0.004363323129985824,0.011999138607461015,-0.06517174137808568,0.00023998277214922032,-0.048000821047133206
0.4498506487999999,-0.5934200047999999,10.1838529856,0.008726646259971648,0.0,0.01090830782496456,-0.06669785488054665,0.0002181661564992912,-0.05032897311759956
0.430708068,-0.6125625856,10.2029955664,0.01090830782496456,0.0,0.008726646259971648,-0.06871545162161678,0.00017453292519943296,-0.048044249238201824
0.42113677759999996,-0.6029912951999999,10.193424275999998,0.01090830782496456,-0.001090830782496456,0.013089969389957472,-0.06772903329717794,0.00026179938779914946,-0.04701980327516695
0.41156548719999997,-0.5934200047999999,10.2317094376,0.011999138607461015,0.002181661564992912,0.008726646259971648,-0.06634382972539653,0.00017453292519943296,-0.045756667511844096
0.430708068,-0.5838487144,10.1838529856,0.014180800172453928,-0.002181661564992912,0.008726646259971648,-0.06566721334644111,0.00017453292519943296,-0.048078356362118865
0.430708068,-0.6508477471999999,10.222138147199999,0.016362461737446838,0.003272492347489368,0.007635815477475192,-0.07279842339411,0.00015271630954950385,-0.04783631492022543
0.44027935839999993,-0.5838487144,10.193424275999998,0.008726646259971648,0.003272492347489368,0.009817477042468103,-0.06549882717371,0.00019634954084936208,-0.04921232059500076
0.4019941968,-0.6125625856,10.2029955664,0.016362461737446838,0.00545415391248228,0.007635815477475192,-0.06860855020493213,0.00015271630954950385,-0.04472357550717439
0.46899322959999995,-0.5838487144,10.2029955664,0.017453292519943295,-0.001090830782496456,0.008726646259971648,-0.06552297853017308,0.00017453292519943296,-0.05220843565418292
0.45942193919999996,-0.5742774239999999,10.193424275999998,0.013089969389957472,-0.003272492347489368,0.01090830782496456,-0.064554592980409,0.0002181661564992912,-0.051273805301704646
0.4019941968,-0.6221338759999999,10.2508520184,0.00545415391248228,-0.004363323129985824,0.007635815477475192,-0.06954701795611294,0.00015271630954950385,-0.04472554247775659
0.42113677759999996,-0.6125625856,10.1838529856,0.007635815477475192,-0.002181661564992912,0.008726646259971648,-0.06888706628462146,0.00017453292519943296,-0.04712549207464355
0.430708068,-0.5838487144,10.1838529856,0.009817477042468103,0.003272492347489368,0.006544984694978736,-0.06556031192975646,0.00013089969389957473,-0.04816387749546659
0.42113677759999996,-0.6029912951999999,10.2029955664,0.013089969389957472,0.001090830782496456,0.009817477042468103,-0.06762290462710274,0.00019634954084936208,-0.046932937729896054
0.41156548719999997,-0.5838487144,10.222138147199999,0.014180800172453928,0.0,0.006544984694978736,-0.06537920234426468,0.00013089969389957473,-0.04575925105753685
0.4498506487999999,-0.5934200047999999,10.1838529856,0.013089969389957472,0.002181661564992912,0.006544984694978736,-0.06665509431387279,0.00013089969389957473,-0.05024345198425184
0.430708068,-0.5838487144,10.2029955664,0.004363323129985824,0.001090830782496456,0.009817477042468103,-0.06548021796349923,0.00019634954084936208,-0.04818045754719858
0.44027935839999993,-0.5934200047999999,10.2029955664,0.016362461737446838,-0.003272492347489368,0.009817477042468103,-0.06663714068443528,0.00019634954084936208,-0.04901388316160462
0.45942193919999996,-0.6029912951999999,10.222138147199999,0.015271630954950384,-0.004363323129985824,0.007635815477475192,-0.06760342460117069,0.00015271630954950385,-0.05107867353081663
0.4498506487999999,-0.5838487144,10.2029955664,0.007635815477475192,0.001090830782496456,0.006544984694978736,-0.06548021796349923,0.00013089969389957473,-0.050258763740161125
0.430708068,-0.5838487144,10.212566856799999,0.013089969389957472,-0.003272492347489368,0.00545415391248228,-0.06550448397725249,0.0001090830782496456,-0.04796438072725909
0.4019941968,-0.5838487144,10.222138147199999,0.01090830782496456,-0.003272492347489368,0.007635815477475192,-0.06544334319427547,0.00015271630954950385,-0.04475387131102853
0.430708068,-0.6029912951999999,10.212566856799999,0.008726646259971648,0.001090830782496456,0.01090830782496456,-0.06755965488874563,0.0002181661564992912,-0.04804467395197179
0.41156548719999997,-0.5934200047999999,10.193424275999998,0.014180800172453928,0.001090830782496456,0.006544984694978736,-0.06661398865474533,0.00013089969389957473,-0.0458858780668226
0.430708068,-0.6029912951999999,10.193424275999998,0.004363323129985824,-0.001090830782496456,0.01090830782496456,-0.06772903329717794,0.0002181661564992912,-0.04822031882600288
0.430708068,-0.5934200047999999,10.2029955664,0.01090830782496456,0.0,0.006544984694978736,-0.0665729998344245,0.00013089969389957473,-0.04804957548898151
0.42113677759999996,-0.5934200047999999,10.222138147199999,0.013089969389957472,0.001090830782496456,0.009817477042468103,-0.06642723055328803,0.00019634954084936208,-0.04684754311815475
0.42113677759999996,-0.5838487144,10.212566856799999,0.008726646259971648,0.002181661564992912,0.007635815477475192,-0.06539758256056784,0.00015271630954950385,-0.04697954811540509
0.44027935839999993,-0.5934200047999999,10.212566856799999,0.01090830782496456,-0.002181661564992912,0.006544984694978736,-0.06655350780921679,0.00013089969389957473,-0.04907476035368749
0.430708068,-0.5934200047999999,10.2029955664,0.015271630954950384,-0.002181661564992912,0.006544984694978736,-0.06661576040109836,0.00013089969389957473,-0.047964054355633785
0.44027935839999993,-0.5934200047999999,10.212566856799999,0.011999138607461015,-0.004363323129985824,0.007635815477475192,-0.06659626837589065,0.00015271630954950385,-0.04905338007035056
0.42113677759999996,-0.6029912951999999,10.2029955664,0.011999138607461015,0.003272492347489368,0.013089969389957472,-0.06758014406042888,0.00026179938779914946,-0.046954318013232986
0.430708068,-0.6029912951999999,10.212566856799999,0.014180800172453928,-0.002181661564992912,0.008726646259971648,-0.06762379573875642,0.00017453292519943296,-0.04793777253528714
0.44027935839999993,-0.6125625856,10.2029955664,0.020725784867432664,0.0,0.009817477042468103,-0.06871545162161678,0.00019634954084936208,-0.04892291785003352
0.44027935839999993,-0.6125625856,10.193424275999998,0.013089969389957472,-0.002181661564992912,0.008726646259971648,-0.06882257895925294,0.00017453292519943296,-0.049118674613644546
0.44027935839999993,-0.5838487144,10.193424275999998,0.01090830782496456,-0.001090830782496456,0.00545415391248228,-0.06558434830705771,0.0001090830782496456,-0.049169560028326904
0.42113677759999996,-0.5934200047999999,10.1838529856,0.008726646259971648,0.0,0.01090830782496456,-0.06669785488054665,0.0002181661564992912,-0.04710934937585181
0.44027935839999993,-0.6029912951999999,10.212566856799999,0.014180800172453928,-0.002181661564992912,0.008726646259971648,-0.06762379573875642,0.00017453292519943296,-0.04900792634417441
0.44027935839999993,-0.5934200047999999,10.212566856799999,0.014180800172453928,-0.002181661564992912,0.009817477042468103,-0.06655350780921679,0.00019634954084936208,-0.049010619503676696
0.41156548719999997,-0.5838487144,10.212566856799999,0.007635815477475192,-0.003272492347489368,0.011999138607461015,-0.06550448397725249,0.00023998277214922032,-0.04593049232602511
0.430708068,-0.6125625856,10.193424275999998,0.011999138607461015,-0.001090830782496456,0.008726646259971648,-0.068801198675916,0.00017453292519943296,-0.04806796526973506
0.44027935839999993,-0.6029912951999999,10.222138147199999,0.008726646259971648,-0.002181661564992912,0.011999138607461015,-0.06756066403449683,0.00023998277214922032,-0.0490688966535661
0.430708068,-0.5934200047999999,10.193424275999998,0.018544123302439753,0.003272492347489368,0.007635815477475192,-0.06657122808807146,0.00015271630954950385,-0.047945024767976435
0.4498506487999999,-0.6029912951999999,10.193424275999998,0.011999138607461015,0.001090830782496456,0.01090830782496456,-0.0676862727305041,0.0002181661564992912,-0.05021486878622626
0.430708068,-0.5934200047999999,10.193424275999998,0.013089969389957472,-0.003272492347489368,0.01090830782496456,-0.06669950978809304,0.0002181661564992912,-0.04805192618466109
0.430708068,-0.5838487144,10.193424275999998,0.015271630954950384,-0.001090830782496456,0.009817477042468103,-0.06558434830705771,0.00019634954084936208,-0.04801177327497721
0.430708068,-0.6125625856,10.193424275999998,0.009817477042468103,0.0,0.008726646259971648,-0.06877981839257907,0.00017453292519943296,-0.04811072583640892
0.44027935839999993,-0.5838487144,10.1838529856,0.013089969389957472,0.0,0.008726646259971648,-0.06562445277976725,0.00017453292519943296,-0.04917300308048155
0.44027935839999993,-0.5934200047999999,10.2029955664,0.008726646259971648,0.002181661564992912,0.009817477042468103,-0.06653023926775063,0.00019634954084936208,-0.04916354514496313
0.44027935839999993,-0.6125625856,10.2029955664,0.01090830782496456,-0.003272492347489368,0.01090830782496456,-0.06877959247162757,0.0002181661564992912,-0.0491153404000659
0.430708068,-0.5838487144,10.2029955664,0.011999138607461015,-0.003272492347489368,0.009817477042468103,-0.06556573909684695,0.00019634954084936208,-0.048030795563840066
0.430708068,-0.6125625856,10.193424275999998,0.011999138607461015,0.0,0.007635815477475192,-0.06877981839257907,0.00015271630954950385,-0.04806796526973506
0.44027935839999993,-0.5934200047999999,10.1838529856,0.01090830782496456,-0.003272492347489368,0.009817477042468103,-0.06676199573055744,0.00019634954084936208,-0.04921309076708014
0.430708068,-0.5838487144,10.212566856799999,0.014180800172453928,-0.002181661564992912,0.009817477042468103,-0.06548310369391556,0.00019634954084936208,-0.047943000443922155
0.430708068,-0.6029912951999999,10.193424275999998,0.016362461737446838,-0.001090830782496456,0.01090830782496456,-0.06772903329717794,0.0002181661564992912,-0.04798513570929665
0.41156548719999997,-0.5838487144,10.2029955664,0.01090830782496456,0.001090830782496456,0.009817477042468103,-0.06548021796349923,0.00019634954084936208,-0.045909391119863356
0.42113677759999996,-0.6029912951999999,10.212566856799999,0.009817477042468103,0.0,0.013089969389957472,-0.06758103517208255,0.00026179938779914946,-0.0469530557015959
0.44027935839999993,-0.6029912951999999,10.193424275999998,0.009817477042468103,-0.001090830782496456,0.009817477042468103,-0.06772903329717794,0.00019634954084936208,-0.04918556662973974
0.4498506487999999,-0.6029912951999999,10.193424275999998,0.009817477042468103,0.001090830782496456,0.008726646259971648,-0.0676862727305041,0.00017453292519943296,-0.050257629352900124
0.42113677759999996,-0.6029912951999999,10.2029955664,0.01090830782496456,0.001090830782496456,0.009817477042468103,-0.06762290462710274,0.00019634954084936208,-0.04697569829656992
0.41156548719999997,-0.5838487144,10.2029955664,0.013089969389957472,0.002181661564992912,0.007635815477475192,-0.0654588376801623,0.00015271630954950385,-0.04586663055318949
0.42113677759999996,-0.6029912951999999,10.212566856799999,0.015271630954950384,-0.002181661564992912,0.01090830782496456,-0.06762379573875642,0.0002181661564992912,-0.04684615428491124
0.41156548719999997,-0.5934200047999999,10.212566856799999,0.013089969389957472,-0.001090830782496456,0.003272492347489368,-0.06653212752587985,6.544984694978737e-05,-0.04582111268988336
0.430708068,-0.5838487144,10.222138147199999,0.015271630954950384,-0.001090830782496456,0.009817477042468103,-0.06540058262760161,0.00019634954084936208,-0.04787666938136146
0.44027935839999993,-0.6125625856,10.212566856799999,0.013089969389957472,0.003272492347489368,0.013089969389957472,-0.06858706421771907,0.00026179938779914946,-0.04902657082952684
0.42113677759999996,-0.6221338759999999,10.212566856799999,0.009817477042468103,0.003272492347489368,0.007635815477475192,-0.06965711423257445,0.00015271630954950385,-0.046947780407416234
0.41156548719999997,-0.6029912951999999,10.193424275999998,0.016362461737446838,-0.004363323129985824,0.006544984694978736,-0.06779317414718875,0.00013089969389957473,-0.045840585245030936
0.44027935839999993,-0.6029912951999999,10.2029955664,0.011999138607461015,0.001090830782496456,0.006544984694978736,-0.06762290462710274,0.00013089969389957473,-0.049096703584432716
0.430708068,-0.5742774239999999,10.222138147199999,0.011999138607461015,0.003272492347489368,0.009817477042468103,-0.06424553898495347,0.00019634954084936208,-0.04794335443353834
0.44027935839999993,-0.6125625856,10.193424275999998,0.018544123302439753,0.003272492347489368,0.007635815477475192,-0.06871567754256828,0.00015271630954950385,-0.049011773196959894
0.4498506487999999,-0.5934200047999999,10.2029955664,0.003272492347489368,-0.001090830782496456,0.006544984694978736,-0.06659438011776142,0.00013089969389957473,-0.05034156938129776
0.430708068,-0.6029912951999999,10.212566856799999,0.015271630954950384,-0.003272492347489368,0.009817477042468103,-0.06764517602209334,0.00019634954084936208,-0.047916392251950206
0.430708068,-0.6029912951999999,10.193424275999998,0.013089969389957472,0.001090830782496456,0.00545415391248228,-0.0676862727305041,0.0001090830782496456,-0.048049276559307436
0.44027935839999993,-0.5838487144,10.212566856799999,0.017453292519943295,-0.002181661564992912,0.009817477042468103,-0.06548310369391556,0.00019634954084936208,-0.0489491291536156
0.430708068,-0.5838487144,10.212566856799999,0.007635815477475192,-0.001090830782496456,0.006544984694978736,-0.06546172341057863,0.00013089969389957473,-0.04807128214394374
0.42113677759999996,-0.6029912951999999,10.212566856799999,0.008726646259971648,-0.001090830782496456,0.009817477042468103,-0.06760241545541948,0.00019634954084936208,-0.046974435984932825
0.4498506487999999,-0.6125625856,10.193424275999998,0.009817477042468103,0.0,0.008726646259971648,-0.06877981839257907,0.00017453292519943296,-0.050254818608079864
0.42113677759999996,-0.6029912951999999,10.193424275999998,0.006544984694978736,-0.002181661564992912,0.00545415391248228,-0.06775041358051488,0.0001090830782496456,-0.04710532440851467
0.430708068,-0.5934200047999999,10.2029955664,0.020725784867432664,0.002181661564992912,0.009817477042468103,-0.06653023926775063,0.00019634954084936208,-0.047857152938949134
0.430708068,-0.5742774239999999,10.222138147199999,0.007635815477475192,-0.003272492347489368,0.011999138607461015,-0.06437382068497505,0.00023998277214922032,-0.04802887556688606
0.42113677759999996,-0.5934200047999999,10.2029955664,0.017453292519943295,0.0,0.008726646259971648,-0.0665729998344245,0.00017453292519943296,-0.04685000029197397
0.4498506487999999,-0.5742774239999999,10.193424275999998,0.014180800172453928,0.003272492347489368,0.01090830782496456,-0.06442631128038742,0.0002181661564992912,-0.05018027753820937
0.44027935839999993,-0.5934200047999999,10.212566856799999,0.011999138607461015,-0.002181661564992912,0.011999138607461015,-0.06655350780921679,0.00023998277214922032,-0.04905338007035056
0.42113677759999996,-0.5934200047999999,10.212566856799999,0.018544123302439753,0.0,0.009817477042468103,-0.06651074724254293,0.00019634954084936208,-0.04678458990571893
0.430708068,-0.6125625856,10.1838529856,0.01090830782496456,-0.002181661564992912,0.006544984694978736,-0.06888706628462146,0.00013089969389957473,-0.048134526027371435
0.41156548719999997,-0.5934200047999999,10.212566856799999,0.015271630954950384,0.001090830782496456,0.01090830782496456,-0.066489366959206,0.0002181661564992912,-0.0457783521232095
0.44027935839999993,-0.6029912951999999,10.193424275999998,0.01090830782496456,-0.002181661564992912,0.009817477042468103,-0.06775041358051488,0.00019634954084936208,-0.04916418634640281
0.44027935839999993,-0.5934200047999999,10.193424275999998,0.013089969389957472,0.001090830782496456,0.006544984694978736,-0.06661398865474533,0.00013089969389957473,-0.049124134069487645
0.44027935839999993,-0.5934200047999999,10.212566856799999,0.014180800172453928,-0.002181661564992912,0.004363323129985824,-0.06655350780921679,8.726646259971648e-05,-0.049010619503676696
0.44027935839999993,-0.5934200047999999,10.193424275999998,0.006544984694978736,-0.002181661564992912,0.01090830782496456,-0.06667812950475611,0.0002181661564992912,-0.04925241576950923
0.44027935839999993,-0.6029912951999999,10.2029955664,0.016362461737446838,0.0,0.006544984694978736,-0.06764428491043967,0.00013089969389957473,-0.049011182451084996
0.44027935839999993,-0.5838487144,10.2029955664,0.016362461737446838,-0.002181661564992912,0.009817477042468103,-0.06554435881351002,0.00019634954084936208,-0.049016541093771404
0.44027935839999993,-0.5934200047999999,10.2029955664,0.014180800172453928,-0.002181661564992912,0.008726646259971648,-0.06661576040109836,0.00017453292519943296,-0.049056643728278476
0.430708068,-0.5934200047999999,10.193424275999998,0.009817477042468103,0.0,0.01090830782496456,-0.06663536893808225,0.0002181661564992912,-0.04811606703467188
0.42113677759999996,-0.5934200047999999,10.212566856799999,0.014180800172453928,0.001090830782496456,0.011999138607461015,-0.066489366959206,0.00023998277214922032,-0.04687011103906665
0.430708068,-0.6125625856,10.222138147199999,0.015271630954950384,-0.002181661564992912,0.007635815477475192,-0.06862983896151706,0.00015271630954950385,-0.04786878701680476
0.430708068,-0.6125625856,10.212566856799999,0.020725784867432664,-0.004363323129985824,0.006544984694978736,-0.06873672620107758,0.00013089969389957473,-0.047806814298362525
0.44027935839999993,-0.5934200047999999,10.2029955664,0.008726646259971648,0.0,0.008726646259971648,-0.0665729998344245,0.00017453292519943296,-0.04916354514496313
0.44027935839999993,-0.5934200047999999,10.212566856799999,0.009817477042468103,-0.003272492347489368,0.009817477042468103,-0.06657488809255371,0.00019634954084936208,-0.04909614063702442
0.44027935839999993,-0.5934200047999999,10.212566856799999,0.015271630954950384,-0.001090830782496456,0.011999138607461015,-0.06653212752587985,0.00023998277214922032,-0.048989239220339764
0.430708068,-0.5838487144,10.1838529856,0.011999138607461015,-0.003272492347489368,0.006544984694978736,-0.06568859362977804,0.00013089969389957473,-0.04812111692879273
0.430708068,-0.5838487144,10.1838529856,0.00545415391248228,0.0,0.006544984694978736,-0.06562445277976725,0.00013089969389957473,-0.04824939862881431
0.430708068,-0.5838487144,10.193424275999998,0.018544123302439753,-0.001090830782496456,0.008726646259971648,-0.06558434830705771,0.00017453292519943296,-0.04794763242496642
0.430708068,-0.6029912951999999,10.2029955664,0.008726646259971648,-0.002181661564992912,0.006544984694978736,-0.06768704547711353,0.00013089969389957473,-0.04808969384575989
0.430708068,-0.5934200047999999,10.212566856799999,0.016362461737446838,-0.003272492347489368,0.014180800172453928,-0.06657488809255371,0.0002836160034490786,-0.047897646790664314
0.42113677759999996,-0.6125625856,10.212566856799999,0.013089969389957472,0.001090830782496456,0.002181661564992912,-0.06862982478439293,4.363323129985824e-05,-0.0468862975897615
0.44027935839999993,-0.6029912951999999,10.2029955664,0.009817477042468103,0.002181661564992912,0.007635815477475192,-0.0676015243437658,0.00015271630954950385,-0.04913946415110658
0.430708068,-0.5934200047999999,10.2029955664,0.014180800172453928,0.0,0.014180800172453928,-0.0665729998344245,0.0002836160034490786,-0.04798543463897072
0.44027935839999993,-0.5934200047999999,10.222138147199999,0.009817477042468103,0.002181661564992912,0.007635815477475192,-0.06640585026995109,0.00015271630954950385,-0.04905020200680477
0.44027935839999993,-0.5934200047999999,10.2029955664,0.020725784867432664,0.0,0.013089969389957472,-0.0665729998344245,0.00026179938779914946,-0.04892836202825689
0.44027935839999993,-0.5934200047999999,10.212566856799999,0.011999138607461015,-0.001090830782496456,0.006544984694978736,-0.06653212752587985,0.00013089969389957473,-0.04905338007035056
0.4498506487999999,-0.6029912951999999,10.222138147199999,0.01090830782496456,-0.003272492347489368,0.013089969389957472,-0.06758204431783375,0.00026179938779914946,-0.05009520918810223
0.44027935839999993,-0.5934200047999999,10.1838529856,0.017453292519943295,0.0,0.009817477042468103,-0.06669785488054665,0.00019634954084936208,-0.04908480906705856
0.430708068,-0.5934200047999999,10.1838529856,0.008726646259971648,-0.002181661564992912,0.008726646259971648,-0.06674061544722051,0.00017453292519943296,-0.0481826427957091
0.44027935839999993,-0.5838487144,10.212566856799999,0.01090830782496456,-0.004363323129985824,0.008726646259971648,-0.06552586426058943,0.00017453292519943296,-0.049077410853637184
0.430708068,-0.5934200047999999,10.212566856799999,0.013089969389957472,-0.002181661564992912,0.013089969389957472,-0.06655350780921679,0.00026179938779914946,-0.0479617876406751
0.44027935839999993,-0.5838487144,10.2029955664,0.016362461737446838,0.0,0.006544984694978736,-0.06550159824683616,0.00013089969389957473,-0.049016541093771404
0.44027935839999993,-0.6029912951999999,10.2029955664,0.009817477042468103,0.0,0.008726646259971648,-0.06764428491043967,0.00017453292519943296,-0.04913946415110658
0.430708068,-0.5934200047999999,10.193424275999998,0.008726646259971648,0.001090830782496456,0.007635815477475192,-0.06661398865474533,0.00015271630954950385,-0.04813744731800881
0.430708068,-0.5934200047999999,10.212566856799999,0.004363323129985824,0.002181661564992912,0.004363323129985824,-0.06646798667586906,8.726646259971648e-05,-0.04813282990737055
0.430708068,-0.5934200047999999,10.212566856799999,0.009817477042468103,0.002181661564992912,0.009817477042468103,-0.06646798667586906,0.00019634954084936208,-0.0480259284906859
0.44027935839999993,-0.6029912951999999,10.193424275999998,0.009817477042468103,0.0,0.014180800172453928,-0.06770765301384102,0.0002836160034490786,-0.04918556662973974
0.45942193919999996,-0.5742774239999999,10.2029955664,0.01090830782496456,0.002181661564992912,0.008726646259971648,-0.0643873214354836,0.00017453292519943296,-0.051268443510188264
0.430708068,-0.6029912951999999,10.222138147199999,0.013089969389957472,-0.004363323129985824,0.008726646259971648,-0.06760342460117069,0.00017453292519943296,-0.04791421664431415
0.42113677759999996,-0.6029912951999999,10.193424275999998,0.016362461737446838,-0.001090830782496456,0.008726646259971648,-0.06772903329717794,0.00017453292519943296,-0.0469129018584823
0.44027935839999993,-0.5838487144,10.193424275999998,0.007635815477475192,0.0,0.01090830782496456,-0.06556296802372079,0.0002181661564992912,-0.04923370087833769
0.42113677759999996,-0.6029912951999999,10.222138147199999,0.011999138607461015,-0.002181661564992912,0.007635815477475192,-0.06756066403449683,0.00015271630954950385,-0.0468663541284005
0.42113677759999996,-0.5934200047999999,10.2029955664,0.01090830782496456,0.0,0.008726646259971648,-0.0665729998344245,0.00017453292519943296,-0.04697828199199555
0.41156548719999997,-0.6125625856,10.222138147199999,0.017453292519943295,0.0,0.006544984694978736,-0.0685870783948432,0.00013089969389957473,-0.04568757701391525
0.4498506487999999,-0.6029912951999999,10.222138147199999,0.011999138607461015,-0.001090830782496456,0.008726646259971648,-0.06753928375115989,0.00017453292519943296,-0.0500738289047653
0.430708068,-0.5934200047999999,10.2029955664,0.011999138607461015,0.003272492347489368,0.004363323129985824,-0.06650885898441371,8.726646259971648e-05,-0.04802819520564458
0.42113677759999996,-0.5838487144,10.2029955664,0.013089969389957472,-0.002181661564992912,0.011999138607461015,-0.06554435881351002,0.00023998277214922032,-0.046938064195918026
0.42113677759999996,-0.5838487144,10.2029955664,0.015271630954950384,0.002181661564992912,0.008726646259971648,-0.0654588376801623,0.00017453292519943296,-0.04689530362924416
0.42113677759999996,-0.5838487144,10.222138147199999,0.018544123302439753,0.004363323129985824,0.01090830782496456,-0.06529368121091696,0.0002181661564992912,-0.0467431702766419
0.41156548719999997,-0.5934200047999999,10.2029955664,0.019634954084936207,-0.002181661564992912,0.013089969389957472,-0.06661576040109836,0.00026179938779914946,-0.04573586368349921
0.44027935839999993,-0.5742774239999999,10.2029955664,0.015271630954950384,-0.001090830782496456,0.011999138607461015,-0.06445146228549439,0.00023998277214922032,-0.04904053651008285
0.4498506487999999,-0.6125625856,10.1838529856,0.00545415391248228,-0.004363323129985824,0.009817477042468103,-0.06892982685129533,0.00019634954084936208,-0.05038752061684004
0.44027935839999993,-0.5742774239999999,10.2029955664,0.016362461737446838,-0.001090830782496456,0.008726646259971648,-0.06445146228549439,0.00017453292519943296,-0.04901915622674592
0.430708068,-0.5838487144,10.193424275999998,0.013089969389957472,-0.003272492347489368,0.007635815477475192,-0.06562710887373158,0.00015271630954950385,-0.04805453384165107
0.430708068,-0.5838487144,10.212566856799999,0.011999138607461015,0.001090830782496456,0.011999138607461015,-0.06541896284390478,0.00023998277214922032,-0.04798576101059602
0.44027935839999993,-0.6029912951999999,10.1838529856,0.01090830782496456,0.004363323129985824,0.008726646259971648,-0.06768561868112241,0.00017453292519943296,-0.04921037486972884
0.430708068,-0.5838487144,10.2029955664,0.015271630954950384,-0.002181661564992912,0.006544984694978736,-0.06554435881351002,0.00013089969389957473,-0.04796665471382927
0.44027935839999993,-0.6125625856,10.2029955664,0.008726646259971648,0.0,0.01090830782496456,-0.06871545162161678,0.0002181661564992912,-0.049158100966739754
0.430708068,-0.5838487144,10.2029955664,0.013089969389957472,0.002181661564992912,0.008726646259971648,-0.0654588376801623,0.00017453292519943296,-0.048009415280503134
0.42113677759999996,-0.6029912951999999,10.2029955664,0.015271630954950384,-0.002181661564992912,0.008726646259971648,-0.06768704547711353,0.00017453292519943296,-0.04689017716322219
0.430708068,-0.5934200047999999,10.212566856799999,0.013089969389957472,0.0,0.006544984694978736,-0.06651074724254293,0.00013089969389957473,-0.0479617876406751
0.430708068,-0.5838487144,10.212566856799999,0.01090830782496456,-0.003272492347489368,0.009817477042468103,-0.06550448397725249,0.00019634954084936208,-0.04800714129393295
0.42113677759999996,-0.6125625856,10.212566856799999,0.007635815477475192,0.0,0.008726646259971648,-0.06865120506772986,0.00017453292519943296,-0.04699319900644615
0.430708068,-0.5934200047999999,10.193424275999998,0.014180800172453928,0.002181661564992912,0.007635815477475192,-0.06659260837140839,0.00015271630954950385,-0.048030545901324155
0.44027935839999993,-0.5838487144,10.1838529856,0.017453292519943295,0.001090830782496456,0.01090830782496456,-0.06560307249643033,0.0002181661564992912,-0.04908748194713383
0.44027935839999993,-0.5934200047999999,10.2029955664,0.013089969389957472,0.00545415391248228,0.008726646259971648,-0.06646609841773984,0.00017453292519943296,-0.04907802401161541
0.42113677759999996,-0.5838487144,10.2029955664,0.007635815477475192,-0.001090830782496456,0.009817477042468103,-0.06552297853017308,0.00019634954084936208,-0.04704496561260268
0.45942193919999996,-0.5934200047999999,10.212566856799999,0.01090830782496456,0.0,0.009817477042468103,-0.06651074724254293,0.00019634954084936208,-0.05121492470424523
0.44027935839999993,-0.5934200047999999,10.1838529856,0.00545415391248228,0.0,0.01090830782496456,-0.06669785488054665,0.0002181661564992912,-0.049319992183764795
0.44027935839999993,-0.6029912951999999,10.222138147199999,0.00545415391248228,-0.004363323129985824,0.00545415391248228,-0.06760342460117069,0.0001090830782496456,-0.04913303750357689
0.42113677759999996,-0.6029912951999999,10.2029955664,0.01090830782496456,-0.001090830782496456,0.008726646259971648,-0.06766566519377659,0.00017453292519943296,-0.04697569829656992
0.4498506487999999,-0.5934200047999999,10.1838529856,0.01090830782496456,-0.001090830782496456,0.007635815477475192,-0.06671923516388358,0.00015271630954950385,-0.050286212550925705
0.42113677759999996,-0.6125625856,10.193424275999998,0.014180800172453928,0.001090830782496456,0.006544984694978736,-0.06875843810924215,0.00013089969389957473,-0.04695303045955106
0.4498506487999999,-0.5934200047999999,10.2029955664,0.015271630954950384,0.002181661564992912,0.008726646259971648,-0.06653023926775063,0.00017453292519943296,-0.05010638626459152
0.430708068,-0.5934200047999999,10.193424275999998,0.011999138607461015,0.0,0.011999138607461015,-0.06663536893808225,0.00023998277214922032,-0.04807330646799802
0.430708068,-0.6029912951999999,10.212566856799999,0.013089969389957472,-0.001090830782496456,0.009817477042468103,-0.06760241545541948,0.00019634954084936208,-0.04795915281862407
0.44027935839999993,-0.6029912951999999,10.2029955664,0.013089969389957472,0.001090830782496456,0.009817477042468103,-0.06762290462710274,0.00019634954084936208,-0.049075323301095784
0.430708068,-0.6029912951999999,10.2029955664,0.016362461737446838,0.0,0.009817477042468103,-0.06764428491043967,0.00019634954084936208,-0.04794003186240138
0.44027935839999993,-0.5838487144,10.222138147199999,0.019634954084936207,0.0,0.011999138607461015,-0.06537920234426468,0.00023998277214922032,-0.04886042255215744
0.45942193919999996,-0.6029912951999999,10.1838529856,0.014180800172453928,0.0,0.008726646259971648,-0.06777113981447014,0.00017453292519943296,-0.0512922713472941
0.4498506487999999,-0.5934200047999999,10.2029955664,0.016362461737446838,0.0,0.007635815477475192,-0.0665729998344245,0.00015271630954950385,-0.05008500598125459
0.430708068,-0.6125625856,10.222138147199999,0.014180800172453928,-0.004363323129985824,0.006544984694978736,-0.06867259952819092,0.00013089969389957473,-0.047890167300141694
0.4498506487999999,-0.5838487144,10.193424275999998,0.009817477042468103,-0.002181661564992912,0.006544984694978736,-0.06560572859039465,0.00013089969389957473,-0.05026311940619675
0.44027935839999993,-0.5838487144,10.212566856799999,0.01090830782496456,-0.003272492347489368,0.009817477042468103,-0.06550448397725249,0.00019634954084936208,-0.049077410853637184
0.430708068,-0.5838487144,10.2029955664,0.009817477042468103,0.0,0.007635815477475192,-0.06550159824683616,0.00015271630954950385,-0.04807355613051393
0.4498506487999999,-0.5934200047999999,10.222138147199999,0.01090830782496456,-0.001090830782496456,0.008726646259971648,-0.06646999111996188,0.00017453292519943296,-0.050097952985542996
0.42113677759999996,-0.6029912951999999,10.2029955664,0.016362461737446838,-0.001090830782496456,0.008726646259971648,-0.06766566519377659,0.00017453292519943296,-0.046868796879885266
0.4498506487999999,-0.5934200047999999,10.222138147199999,0.013089969389957472,0.00545415391248228,0.007635815477475192,-0.0663417094199403,0.00015271630954950385,-0.05005519241886913
0.44027935839999993,-0.5742774239999999,10.2029955664,0.011999138607461015,0.0,0.01090830782496456,-0.06443008200215747,0.0002181661564992912,-0.04910467736009364
0.44027935839999993,-0.5838487144,10.2029955664,0.01090830782496456,-0.001090830782496456,0.006544984694978736,-0.06552297853017308,0.00013089969389957473,-0.049123442510456056
0.430708068,-0.6029912951999999,10.193424275999998,0.01090830782496456,0.0,0.008726646259971648,-0.06770765301384102,0.00017453292519943296,-0.0480920371259813
0.41156548719999997,-0.5838487144,10.212566856799999,0.008726646259971648,0.002181661564992912,0.00545415391248228,-0.06539758256056784,0.0001090830782496456,-0.04590911204268818
0.430708068,-0.5934200047999999,10.2029955664,0.01090830782496456,0.001090830782496456,0.01090830782496456,-0.06655161955108757,0.0002181661564992912,-0.04804957548898151
0.44027935839999993,-0.5838487144,10.2029955664,0.007635815477475192,-0.002181661564992912,0.009817477042468103,-0.06554435881351002,0.00019634954084936208,-0.049187583360466844
0.430708068,-0.5934200047999999,10.1838529856,0.013089969389957472,0.001090830782496456,0.014180800172453928,-0.06667647459720973,0.0002836160034490786,-0.04809712166236138
0.430708068,-0.6029912951999999,10.212566856799999,0.015271630954950384,-0.002181661564992912,0.008726646259971648,-0.06762379573875642,0.00017453292519943296,-0.047916392251950206
0.430708068,-0.5838487144,10.212566856799999,0.009817477042468103,-0.00545415391248228,0.013089969389957472,-0.06554724454392635,0.00026179938779914946,-0.04802852157726988
0.42113677759999996,-0.5934200047999999,10.212566856799999,0.016362461737446838,-0.002181661564992912,0.008726646259971648,-0.06655350780921679,0.00017453292519943296,-0.046827350472392795
0.430708068,-0.6029912951999999,10.222138147199999,0.008726646259971648,-0.001090830782496456,0.008726646259971648,-0.06753928375115989,0.00017453292519943296,-0.04799973777766187
0.4498506487999999,-0.6125625856,10.2029955664,0.01090830782496456,-0.001090830782496456,0.008726646259971648,-0.06873683190495371,0.00017453292519943296,-0.05018634532079388
0.44027935839999993,-0.5838487144,10.2029955664,0.017453292519943295,0.001090830782496456,0.007635815477475192,-0.06548021796349923,0.00015271630954950385,-0.04899516081043447
0.430708068,-0.6125625856,10.212566856799999,0.006544984694978736,-0.002181661564992912,0.009817477042468103,-0.06869396563440372,0.00019634954084936208,-0.048084757981742624
0.430708068,-0.5838487144,10.2029955664,0.013089969389957472,0.002181661564992912,0.008726646259971648,-0.0654588376801623,0.00017453292519943296,-0.048009415280503134
0.4498506487999999,-0.5838487144,10.2029955664,0.009817477042468103,-0.004363323129985824,0.013089969389957472,-0.06558711938018388,0.00026179938779914946,-0.05021600317348727
0.42113677759999996,-0.5838487144,10.2029955664,0.014180800172453928,-0.002181661564992912,0.00545415391248228,-0.06554435881351002,0.0001090830782496456,-0.046916683912581095
0.42113677759999996,-0.5934200047999999,10.212566856799999,0.02181661564992912,-0.003272492347489368,0.008726646259971648,-0.06657488809255371,0.00017453292519943296,-0.04672044905570814
0.4498506487999999,-0.5934200047999999,10.2029955664,0.011999138607461015,0.001090830782496456,0.008726646259971648,-0.06655161955108757,0.00017453292519943296,-0.05017052711460231
0.42113677759999996,-0.6029912951999999,10.2029955664,0.009817477042468103,0.0,0.007635815477475192,-0.06764428491043967,0.00015271630954950385,-0.04699707857990685
0.430708068,-0.5838487144,10.193424275999998,0.009817477042468103,0.0,0.008726646259971648,-0.06556296802372079,0.00017453292519943296,-0.04811867469166187
0.4498506487999999,-0.5838487144,10.2029955664,0.015271630954950384,-0.003272492347489368,0.008726646259971648,-0.06556573909684695,0.00017453292519943296,-0.05010910175680261
0.42113677759999996,-0.5838487144,10.193424275999998,0.009817477042468103,0.002181661564992912,0.009817477042468103,-0.06552020745704693,0.00019634954084936208,-0.047046324413665006
0.44027935839999993,-0.6029912951999999,10.193424275999998,0.009817477042468103,0.0,0.014180800172453928,-0.06770765301384102,0.0002836160034490786,-0.04918556662973974
0.430708068,-0.5934200047999999,10.2029955664,0.009817477042468103,0.0,0.006544984694978736,-0.0665729998344245,0.00013089969389957473,-0.048070955772318444
0.42113677759999996,-0.5838487144,10.212566856799999,0.016362461737446838,-0.002181661564992912,0.007635815477475192,-0.06548310369391556,0.00015271630954950385,-0.04682988613204658
0.42113677759999996,-0.5838487144,10.193424275999998,0.013089969389957472,0.001090830782496456,0.008726646259971648,-0.06554158774038386,0.00017453292519943296,-0.04698218356365421
0.430708068,-0.5742774239999999,10.212566856799999,0.014180800172453928,0.002181661564992912,0.008726646259971648,-0.06432706410884809,0.00017453292519943296,-0.04794555177474469
0.430708068,-0.5934200047999999,10.212566856799999,0.006544984694978736,-0.003272492347489368,0.006544984694978736,-0.06657488809255371,0.00013089969389957473,-0.048090069340696685
0.430708068,-0.6029912951999999,10.212566856799999,0.009817477042468103,-0.001090830782496456,0.01090830782496456,-0.06760241545541948,0.0002181661564992912,-0.048023293668634864
0.430708068,-0.5934200047999999,10.2029955664,0.013089969389957472,0.001090830782496456,0.006544984694978736,-0.06655161955108757,0.00013089969389957473,-0.04800681492230765
0.44027935839999993,-0.5838487144,10.212566856799999,0.015271630954950384,-0.001090830782496456,0.011999138607461015,-0.06546172341057863,0.00023998277214922032,-0.04899188972028946
0.430708068,-0.5838487144,10.193424275999998,0.009817477042468103,0.0,0.00545415391248228,-0.06556296802372079,0.0001090830782496456,-0.04811867469166187
0.430708068,-0.5934200047999999,10.193424275999998,0.018544123302439753,0.0,0.007635815477475192,-0.06663536893808225,0.00015271630954950385,-0.047945024767976435
0.42113677759999996,-0.5934200047999999,10.193424275999998,0.007635815477475192,0.0,0.008726646259971648,-0.06663536893808225,0.00017453292519943296,-0.04708653507221589
0.430708068,-0.5934200047999999,10.2029955664,0.018544123302439753,-0.003272492347489368,0.011999138607461015,-0.06663714068443528,0.00023998277214922032,-0.047899913505623
0.44027935839999993,-0.6029912951999999,10.2029955664,0.015271630954950384,-0.004363323129985824,0.006544984694978736,-0.0677298060437874,0.00013089969389957473,-0.04903256273442192
0.42113677759999996,-0.5934200047999999,10.193424275999998,0.013089969389957472,0.001090830782496456,0.008726646259971648,-0.06661398865474533,0.00017453292519943296,-0.04697963365553124
0.430708068,-0.6125625856,10.212566856799999,0.01090830782496456,0.002181661564992912,0.008726646259971648,-0.06860844450105599,0.00017453292519943296,-0.047999236848394904
0.430708068,-0.5934200047999999,10.193424275999998,0.008726646259971648,0.001090830782496456,0.013089969389957472,-0.06661398865474533,0.00026179938779914946,-0.04813744731800881
0.44027935839999993,-0.6029912951999999,10.2029955664,0.007635815477475192,0.0,0.009817477042468103,-0.06764428491043967,0.00019634954084936208,-0.049182224717780436
0.430708068,-0.6029912951999999,10.2029955664,0.011999138607461015,-0.002181661564992912,0.007635815477475192,-0.06768704547711353,0.00015271630954950385,-0.0480255529957491
0.430708068,-0.6029912951999999,10.222138147199999,0.011999138607461015,0.004363323129985824,0.009817477042468103,-0.06743238233447524,0.00019634954084936208,-0.047935596927651085
0.42113677759999996,-0.5934200047999999,10.1838529856,0.016362461737446838,0.004363323129985824,0.01090830782496456,-0.06661233374719892,0.0002181661564992912,-0.0469596873924933
0.4498506487999999,-0.6029912951999999,10.193424275999998,0.019634954084936207,0.0,0.007635815477475192,-0.06770765301384102,0.00015271630954950385,-0.050065206802867745
0.42113677759999996,-0.5934200047999999,10.222138147199999,0.016362461737446838,-0.002181661564992912,0.008726646259971648,-0.06649137140329882,0.00017453292519943296,-0.04678340226814396
0.42113677759999996,-0.5742774239999999,10.212566856799999,0.011999138607461015,-0.003272492347489368,0.009817477042468103,-0.06443396552553274,0.00019634954084936208,-0.04691790209403742
0.42113677759999996,-0.6029912951999999,10.2029955664,0.009817477042468103,-0.004363323129985824,0.008726646259971648,-0.0677298060437874,0.00017453292519943296,-0.04699707857990685
0.430708068,-0.6029912951999999,10.193424275999998,0.01090830782496456,0.001090830782496456,0.006544984694978736,-0.0676862727305041,0.00013089969389957473,-0.0480920371259813
0.430708068,-0.6029912951999999,10.1838529856,0.013089969389957472,-0.001090830782496456,0.013089969389957472,-0.06779252009780706,0.00026179938779914946,-0.04809446459380687
0.430708068,-0.6125625856,10.212566856799999,0.016362461737446838,-0.001090830782496456,0.006544984694978736,-0.06867258535106678,0.00013089969389957473,-0.04789233543171025
0.430708068,-0.5647061335999999,10.2029955664,0.008726646259971648,-0.002181661564992912,0.013089969389957472,-0.0634012135227441,0.00026179938779914946,-0.04810001149390798
0.44027935839999993,-0.5934200047999999,10.212566856799999,0.011999138607461015,0.003272492347489368,0.006544984694978736,-0.06644660639253214,0.00013089969389957473,-0.04905338007035056
0.44027935839999993,-0.5838487144,10.222138147199999,0.007635815477475192,-0.003272492347489368,0.013089969389957472,-0.06544334319427547,0.00026179938779914946,-0.04909560566886367
0.430708068,-0.5934200047999999,10.2029955664,0.013089969389957472,0.001090830782496456,0.01090830782496456,-0.06655161955108757,0.0002181661564992912,-0.04800681492230765
0.4498506487999999,-0.6029912951999999,10.2029955664,0.01090830782496456,0.002181661564992912,0.009817477042468103,-0.0676015243437658,0.00019634954084936208,-0.050189148200945104
0.42113677759999996,-0.6029912951999999,10.1838529856,0.016362461737446838,-0.004363323129985824,0.01090830782496456,-0.06785666094781787,0.0002181661564992912,-0.046957089166711145
0.430708068,-0.5838487144,10.2029955664,0.018544123302439753,0.002181661564992912,0.008726646259971648,-0.0654588376801623,0.00017453292519943296,-0.04790251386381848
0.430708068,-0.5934200047999999,10.212566856799999,0.016362461737446838,-0.001090830782496456,0.008726646259971648,-0.06653212752587985,0.00017453292519943296,-0.047897646790664314
0.42113677759999996,-0.6029912951999999,10.212566856799999,0.014180800172453928,-0.002181661564992912,0.004363323129985824,-0.06762379573875642,8.726646259971648e-05,-0.04686753456824817
0.4498506487999999,-0.5934200047999999,10.2317094376,0.014180800172453928,0.003272492347489368,0.011999138607461015,-0.0663224494420596,0.00023998277214922032,-0.04998696584757994
0.42113677759999996,-0.5934200047999999,10.212566856799999,0.019634954084936207,-0.004363323129985824,0.007635815477475192,-0.06659626837589065,0.00015271630954950385,-0.046763209622382
0.42113677759999996,-0.6125625856,10.193424275999998,0.017453292519943295,-0.00545415391248228,0.008726646259971648,-0.06888671980926372,0.00017453292519943296,-0.04688888960954027
0.4498506487999999,-0.5934200047999999,10.222138147199999,0.007635815477475192,0.0,0.011999138607461015,-0.06644861083662496,0.00023998277214922032,-0.050162093835553784
0.42113677759999996,-0.6029912951999999,10.212566856799999,0.016362461737446838,-0.001090830782496456,0.004363323129985824,-0.06760241545541948,8.726646259971648e-05,-0.04682477400157432
0.4498506487999999,-0.6029912951999999,10.2029955664,0.008726646259971648,-0.001090830782496456,0.006544984694978736,-0.06766566519377659,0.00013089969389957473,-0.05023190876761896
0.44027935839999993,-0.6029912951999999,10.2029955664,0.01090830782496456,0.0,0.008726646259971648,-0.06764428491043967,0.00017453292519943296,-0.04911808386776965
0.42113677759999996,-0.5742774239999999,10.1838529856,0.01090830782496456,-0.003272492347489368,0.007635815477475192,-0.06461507622696222,0.00015271630954950385,-0.047071661780344
0.430708068,-0.5934200047999999,10.2029955664,0.015271630954950384,-0.002181661564992912,0.009817477042468103,-0.06661576040109836,0.00019634954084936208,-0.047964054355633785
0.4498506487999999,-0.5934200047999999,10.193424275999998,0.018544123302439753,-0.002181661564992912,0.009817477042468103,-0.06667812950475611,0.00019634954084936208,-0.05008935402615263
0.45942193919999996,-0.6029912951999999,10.2029955664,0.013089969389957472,-0.003272492347489368,0.007635815477475192,-0.06770842576045046,0.00015271630954950385,-0.0512173638511655
0.44027935839999993,-0.5838487144,10.1838529856,0.016362461737446838,-0.002181661564992912,0.009817477042468103,-0.06566721334644111,0.00019634954084936208,-0.049108862230470764
0.44027935839999993,-0.6029912951999999,10.193424275999998,0.011999138607461015,0.0,0.01090830782496456,-0.06770765301384102,0.0002181661564992912,-0.049142806063065876
0.44027935839999993,-0.5934200047999999,10.212566856799999,0.014180800172453928,-0.001090830782496456,0.011999138607461015,-0.06653212752587985,0.00023998277214922032,-0.049010619503676696
0.42113677759999996,-0.6029912951999999,10.2029955664,0.016362461737446838,-0.001090830782496456,0.009817477042468103,-0.06766566519377659,0.00019634954084936208,-0.046868796879885266
0.4498506487999999,-0.6029912951999999,10.2317094376,0.018544123302439753,0.001090830782496456,0.009817477042468103,-0.06743350918460848,0.00019634954084936208,-0.049898708573658065
0.44027935839999993,-0.5838487144,10.1838529856,0.014180800172453928,0.001090830782496456,0.01090830782496456,-0.06560307249643033,0.0002181661564992912,-0.04915162279714462
0.430708068,-0.5934200047999999,10.193424275999998,0.01090830782496456,-0.002181661564992912,0.009817477042468103,-0.06667812950475611,0.00019634954084936208,-0.04809468675133495
0.430708068,-0.6029912951999999,10.2029955664,0.017453292519943295,-0.002181661564992912,0.009817477042468103,-0.06768704547711353,0.00019634954084936208,-0.04791865157906445
0.45942193919999996,-0.6125625856,10.212566856799999,0.015271630954950384,0.001090830782496456,0.013089969389957472,-0.06862982478439293,0.00026179938779914946,-0.051123739502121755
0.44027935839999993,-0.6029912951999999,10.212566856799999,0.013089969389957472,0.002181661564992912,0.006544984694978736,-0.06753827460540869,0.00013089969389957473,-0.04902930662751134
0.44027935839999993,-0.5742774239999999,10.193424275999998,0.013089969389957472,0.00545415391248228,0.008726646259971648,-0.06438355071371356,0.00017453292519943296,-0.049129421935288305
0.4498506487999999,-0.6029912951999999,10.212566856799999,0.015271630954950384,0.003272492347489368,0.00545415391248228,-0.06751689432207177,0.0001090830782496456,-0.050056613855070826
0.4498506487999999,-0.5934200047999999,10.193424275999998,0.017453292519943295,-0.001090830782496456,0.009817477042468103,-0.06665674922141918,0.00019634954084936208,-0.05011073430948956
0.4498506487999999,-0.6125625856,10.212566856799999,0.014180800172453928,0.002181661564992912,0.011999138607461015,-0.06860844450105599,0.00023998277214922032,-0.05007519909364704
0.4498506487999999,-0.5934200047999999,10.2029955664,0.013089969389957472,0.002181661564992912,0.007635815477475192,-0.06653023926775063,0.00015271630954950385,-0.05014914683126538
0.42113677759999996,-0.6029912951999999,10.1838529856,0.014180800172453928,0.002181661564992912,0.004363323129985824,-0.06772837924779627,8.726646259971648e-05,-0.046999849733385
0.44027935839999993,-0.6029912951999999,10.193424275999998,0.009817477042468103,0.001090830782496456,0.01090830782496456,-0.0676862727305041,0.0002181661564992912,-0.04918556662973974
0.430708068,-0.6029912951999999,10.1838529856,0.017453292519943295,-0.002181661564992912,0.009817477042468103,-0.067813900381144,0.00019634954084936208,-0.04800894346045915
0.41156548719999997,-0.5838487144,10.212566856799999,0.008726646259971648,-0.001090830782496456,0.011999138607461015,-0.06546172341057863,0.00023998277214922032,-0.04590911204268818
0.44027935839999993,-0.6029912951999999,10.212566856799999,0.016362461737446838,0.002181661564992912,0.009817477042468103,-0.06753827460540869,0.00019634954084936208,-0.048965165777500555
0.45942193919999996,-0.5838487144,10.212566856799999,0.014180800172453928,0.0,0.01090830782496456,-0.0654403431272417,0.0002181661564992912,-0.05115354913903134
0.430708068,-0.6029912951999999,10.193424275999998,0.014180800172453928,0.0,0.004363323129985824,-0.06770765301384102,8.726646259971648e-05,-0.048027896275970504
0.44027935839999993,-0.6125625856,10.193424275999998,0.016362461737446838,-0.002181661564992912,0.011999138607461015,-0.06882257895925294,0.00023998277214922032,-0.04905453376363376
0.42113677759999996,-0.5934200047999999,10.2029955664,0.016362461737446838,-0.002181661564992912,0.011999138607461015,-0.06661576040109836,0.00023998277214922032,-0.0468713805753109
0.42113677759999996,-0.5838487144,10.212566856799999,0.016362461737446838,-0.00545415391248228,0.006544984694978736,-0.06554724454392635,0.00013089969389957473,-0.04682988613204658
0.4498506487999999,-0.5934200047999999,10.212566856799999,0.008726646259971648,-0.002181661564992912,0.014180800172453928,-0.06655350780921679,0.0002836160034490786,-0.050187647037962115
0.4498506487999999,-0.6029912951999999,10.193424275999998,0.009817477042468103,0.001090830782496456,0.009817477042468103,-0.0676862727305041,0.00019634954084936208,-0.050257629352900124
0.4881358104,-0.5838487144,10.164710404799997,0.011999138607461015,-0.004363323129985824,0.009817477042468103,-0.06583328965620878,0.00019634954084936208,-0.05466207169252689
0.44027935839999993,-0.5838487144,10.193424275999998,0.020725784867432664,0.00545415391248228,0.008726646259971648,-0.06545606660703614,0.00017453292519943296,-0.048977137478294526
0.44027935839999993,-0.6029912951999999,10.1838529856,0.011999138607461015,0.004363323129985824,0.007635815477475192,-0.06768561868112241,0.00015271630954950385,-0.04918899458639191
0.44027935839999993,-0.5742774239999999,10.2029955664,0.014180800172453928,-0.002181661564992912,0.009817477042468103,-0.06447284256883133,0.00019634954084936208,-0.04906191679341978
0.430708068,-0.5934200047999999,10.2317094376,0.016362461737446838,-0.003272492347489368,0.014180800172453928,-0.06645073114208118,0.0002836160034490786,-0.04780784323539757
0.430708068,-0.6029912951999999,10.2029955664,0.004363323129985824,0.00545415391248228,0.009817477042468103,-0.06753738349375502,0.00019634954084936208,-0.048175214979107615
0.42113677759999996,-0.6125625856,10.193424275999998,0.011999138607461015,-0.001090830782496456,0.011999138607461015,-0.068801198675916,0.00023998277214922032,-0.04699579102622492
0.44027935839999993,-0.6029912951999999,10.212566856799999,0.014180800172453928,0.001090830782496456,0.006544984694978736,-0.06755965488874563,0.00013089969389957473,-0.04900792634417441
0.430708068,-0.6029912951999999,10.2029955664,0.013089969389957472,0.004363323129985824,0.009817477042468103,-0.06755876377709194,0.00019634954084936208,-0.04800417271241217
0.44027935839999993,-0.5934200047999999,10.1838529856,0.014180800172453928,-0.001090830782496456,0.007635815477475192,-0.06671923516388358,0.00015271630954950385,-0.04914894991706935
0.430708068,-0.6029912951999999,10.193424275999998,0.01090830782496456,0.002181661564992912,0.009817477042468103,-0.06766489244716715,0.00019634954084936208,-0.0480920371259813
0.44027935839999993,-0.5934200047999999,10.2317094376,0.016362461737446838,0.002181661564992912,0.007635815477475192,-0.06634382972539653,0.00015271630954950385,-0.048876067032940985
0.42113677759999996,-0.6029912951999999,10.193424275999998,0.017453292519943295,-0.001090830782496456,0.008726646259971648,-0.06772903329717794,0.00017453292519943296,-0.04689152157514537
0.44027935839999993,-0.6029912951999999,10.212566856799999,0.011999138607461015,0.001090830782496456,0.006544984694978736,-0.06755965488874563,0.00013089969389957473,-0.049050686910848275
0.430708068,-0.5838487144,10.212566856799999,0.008726646259971648,0.0,0.009817477042468103,-0.0654403431272417,0.00019634954084936208,-0.04804990186060681
0.41156548719999997,-0.5742774239999999,10.2029955664,0.014180800172453928,0.001090830782496456,0.009817477042468103,-0.06440870171882054,0.00019634954084936208,-0.04584769542228773
0.44027935839999993,-0.6029912951999999,10.1838529856,0.013089969389957472,0.003272492347489368,0.01090830782496456,-0.06770699896445935,0.0002181661564992912,-0.049167614303054975
0.42113677759999996,-0.5838487144,10.222138147199999,0.00545415391248228,-0.003272492347489368,0.01090830782496456,-0.06544334319427547,0.0002181661564992912,-0.046999733676685064
0.45942193919999996,-0.5934200047999999,10.193424275999998,0.015271630954950384,-0.001090830782496456,0.007635815477475192,-0.06665674922141918,0.00015271630954950385,-0.051225527871769636
0.430708068,-0.6029912951999999,10.1838529856,0.014180800172453928,-0.003272492347489368,0.009817477042468103,-0.06783528066448093,0.00019634954084936208,-0.048073084310469937
0.42113677759999996,-0.5934200047999999,10.2029955664,0.014180800172453928,0.002181661564992912,0.008726646259971648,-0.06653023926775063,0.00017453292519943296,-0.04691414114198476
0.44027935839999993,-0.5934200047999999,10.2029955664,0.013089969389957472,0.002181661564992912,0.009817477042468103,-0.06653023926775063,0.00019634954084936208,-0.04907802401161541
0.4498506487999999,-0.6029912951999999,10.2029955664,0.013089969389957472,-0.003272492347489368,0.009817477042468103,-0.06770842576045046,0.00019634954084936208,-0.05014638763427124
0.42113677759999996,-0.5934200047999999,10.212566856799999,0.007635815477475192,-0.001090830782496456,0.01090830782496456,-0.06653212752587985,0.0002181661564992912,-0.046998392739088235
0.430708068,-0.5934200047999999,10.212566856799999,0.01090830782496456,0.001090830782496456,0.006544984694978736,-0.066489366959206,0.00013089969389957473,-0.048004548207348965
0.430708068,-0.5934200047999999,10.1838529856,0.014180800172453928,-0.001090830782496456,0.00545415391248228,-0.06671923516388358,0.0001090830782496456,-0.04807574137902445
0.44027935839999993,-0.5838487144,10.2029955664,0.014180800172453928,0.001090830782496456,0.011999138607461015,-0.06548021796349923,0.00023998277214922032,-0.04905930166044526
0.42113677759999996,-0.5934200047999999,10.2029955664,0.01090830782496456,-0.003272492347489368,0.009817477042468103,-0.06663714068443528,0.00019634954084936208,-0.04697828199199555
0.430708068,-0.5838487144,10.193424275999998,0.009817477042468103,-0.001090830782496456,0.008726646259971648,-0.06558434830705771,0.00017453292519943296,-0.04811867469166187
0.44027935839999993,-0.6029912951999999,10.2029955664,0.018544123302439753,-0.002181661564992912,0.008726646259971648,-0.06768704547711353,0.00017453292519943296,-0.04896842188441113
0.42113677759999996,-0.5934200047999999,10.2029955664,0.017453292519943295,0.002181661564992912,0.006544984694978736,-0.06653023926775063,0.00013089969389957473,-0.04685000029197397
0.4498506487999999,-0.5934200047999999,10.1838529856,0.01090830782496456,-0.002181661564992912,0.009817477042468103,-0.06674061544722051,0.00019634954084936208,-0.050286212550925705
0.430708068,-0.5934200047999999,10.212566856799999,0.014180800172453928,0.002181661564992912,0.00545415391248228,-0.06646798667586906,0.0001090830782496456,-0.04794040735733817
0.42113677759999996,-0.6029912951999999,10.193424275999998,0.016362461737446838,0.002181661564992912,0.007635815477475192,-0.06766489244716715,0.00015271630954950385,-0.0469129018584823
0.4498506487999999,-0.5934200047999999,10.1838529856,0.01090830782496456,-0.004363323129985824,0.007635815477475192,-0.06678337601389438,0.00015271630954950385,-0.050286212550925705
0.430708068,-0.6029912951999999,10.193424275999998,0.015271630954950384,-0.002181661564992912,0.009817477042468103,-0.06775041358051488,0.00019634954084936208,-0.04800651599263357
0.430708068,-0.5838487144,10.212566856799999,0.007635815477475192,0.0,0.008726646259971648,-0.0654403431272417,0.00017453292519943296,-0.04807128214394374
0.430708068,-0.6029912951999999,10.2029955664,0.009817477042468103,-0.00545415391248228,0.007635815477475192,-0.06775118632712432,0.00015271630954950385,-0.048068313562422964
0.42113677759999996,-0.6029912951999999,10.2029955664,0.011999138607461015,-0.002181661564992912,0.01090830782496456,-0.06768704547711353,0.0002181661564992912,-0.046954318013232986
0.42113677759999996,-0.6029912951999999,10.212566856799999,0.014180800172453928,0.006544984694978736,0.006544984694978736,-0.06745275347206098,0.00013089969389957473,-0.04686753456824817
0.44027935839999993,-0.6029912951999999,10.212566856799999,0.011999138607461015,0.0,0.001090830782496456,-0.06758103517208255,2.181661564992912e-05,-0.049050686910848275
0.430708068,-0.5934200047999999,10.212566856799999,0.009817477042468103,0.001090830782496456,0.01090830782496456,-0.066489366959206,0.0002181661564992912,-0.0480259284906859
0.41156548719999997,-0.5934200047999999,10.212566856799999,0.016362461737446838,-0.003272492347489368,0.01090830782496456,-0.06657488809255371,0.0002181661564992912,-0.045756971839872575
0.430708068,-0.6029912951999999,10.212566856799999,0.01090830782496456,-0.001090830782496456,0.009817477042468103,-0.06760241545541948,0.00019634954084936208,-0.04800191338529793
0.42113677759999996,-0.6029912951999999,10.212566856799999,0.013089969389957472,0.0,0.007635815477475192,-0.06758103517208255,0.00015271630954950385,-0.046888914851585105
0.430708068,-0.6029912951999999,10.193424275999998,0.008726646259971648,-0.001090830782496456,0.008726646259971648,-0.06772903329717794,0.00017453292519943296,-0.048134797692655155
0.44027935839999993,-0.5838487144,10.193424275999998,0.020725784867432664,0.003272492347489368,0.007635815477475192,-0.06549882717371,0.00015271630954950385,-0.048977137478294526
0.44027935839999993,-0.5838487144,10.2029955664,0.009817477042468103,-0.001090830782496456,0.006544984694978736,-0.06552297853017308,0.00013089969389957473,-0.04914482279379299
0.430708068,-0.5742774239999999,10.212566856799999,0.013089969389957472,0.0,0.004363323129985824,-0.06436982467552195,8.726646259971648e-05,-0.04796693205808162
0.44027935839999993,-0.5838487144,10.1742816952,0.016362461737446838,0.001090830782496456,0.008726646259971648,-0.06566467255471495,0.00017453292519943296,-0.04915515219105528
0.42113677759999996,-0.6029912951999999,10.222138147199999,0.017453292519943295,0.001090830782496456,0.009817477042468103,-0.06749652318448604,0.00019634954084936208,-0.046759452711715846
0.430708068,-0.6029912951999999,10.222138147199999,0.009817477042468103,-0.001090830782496456,0.006544984694978736,-0.06753928375115989,0.00013089969389957473,-0.04797835749432495
0.41156548719999997,-0.5934200047999999,10.212566856799999,0.013089969389957472,-0.001090830782496456,0.008726646259971648,-0.06653212752587985,0.00017453292519943296,-0.04582111268988336
0.44027935839999993,-0.6029912951999999,10.2029955664,0.008726646259971648,0.003272492347489368,0.011999138607461015,-0.06758014406042888,0.00023998277214922032,-0.049160844434443504
0.44027935839999993,-0.6221338759999999,10.212566856799999,0.017453292519943295,0.0,0.009817477042468103,-0.06972125508258524,0.00019634954084936208,-0.04893827128111011
0.430708068,-0.5838487144,10.193424275999998,0.007635815477475192,-0.00545415391248228,0.009817477042468103,-0.06566986944040544,0.00019634954084936208,-0.04816143525833572
0.42113677759999996,-0.6029912951999999,10.2029955664,0.011999138607461015,0.0,0.006544984694978736,-0.06764428491043967,0.00013089969389957473,-0.046954318013232986
0.430708068,-0.6029912951999999,10.222138147199999,0.008726646259971648,0.003272492347489368,0.013089969389957472,-0.06745376261781218,0.00026179938779914946,-0.04799973777766187
0.4498506487999999,-0.5838487144,10.222138147199999,0.013089969389957472,-0.001090830782496456,0.008726646259971648,-0.06540058262760161,0.00017453292519943296,-0.05005789275381224
0.430708068,-0.5934200047999999,10.2029955664,0.016362461737446838,-0.004363323129985824,0.015271630954950384,-0.06665852096777222,0.0003054326190990077,-0.04794267407229686
0.430708068,-0.6029912951999999,10.2029955664,0.008726646259971648,0.001090830782496456,0.008726646259971648,-0.06762290462710274,0.00017453292519943296,-0.04808969384575989
0.430708068,-0.5934200047999999,10.193424275999998,0.018544123302439753,0.001090830782496456,0.011999138607461015,-0.06661398865474533,0.00023998277214922032,-0.047945024767976435
0.42113677759999996,-0.5934200047999999,10.193424275999998,0.01090830782496456,-0.001090830782496456,0.01090830782496456,-0.06665674922141918,0.0002181661564992912,-0.047022394222205104
0.42113677759999996,-0.5934200047999999,10.2029955664,0.014180800172453928,0.0,0.011999138607461015,-0.0665729998344245,0.00023998277214922032,-0.04691414114198476
0.44027935839999993,-0.5934200047999999,10.212566856799999,0.008726646259971648,-0.001090830782496456,0.011999138607461015,-0.06653212752587985,0.00023998277214922032,-0.04911752092036135
0.430708068,-0.5934200047999999,10.2029955664,0.008726646259971648,-0.001090830782496456,0.011999138607461015,-0.06659438011776142,0.00023998277214922032,-0.04809233605565537
0.4498506487999999,-0.5934200047999999,10.1742816952,0.014180800172453928,0.001090830782496456,0.01090830782496456,-0.06673907770673496,0.0002181661564992912,-0.05026935641800478
0.42113677759999996,-0.5838487144,10.2029955664,0.018544123302439753,0.003272492347489368,0.009817477042468103,-0.06543745739682537,0.00019634954084936208,-0.046831162779233375
0.4498506487999999,-0.5838487144,10.2029955664,0.006544984694978736,0.002181661564992912,0.011999138607461015,-0.0654588376801623,0.00023998277214922032,-0.050280144023498057
0.4019941968,-0.6029912951999999,10.193424275999998,0.013089969389957472,0.004363323129985824,0.015271630954950384,-0.06762213188049329,0.0003054326190990077,-0.04483232858757726
0.4498506487999999,-0.6029912951999999,10.2029955664,0.007635815477475192,0.0,0.007635815477475192,-0.06764428491043967,0.00015271630954950385,-0.05025328905095589
0.41156548719999997,-0.6029912951999999,10.222138147199999,0.013089969389957472,0.0,0.008726646259971648,-0.06751790346782297,0.00017453292519943296,-0.04577564897468976
0.44027935839999993,-0.5934200047999999,10.2029955664,0.011999138607461015,0.002181661564992912,0.014180800172453928,-0.06653023926775063,0.0002836160034490786,-0.04909940429495234
0.430708068,-0.6029912951999999,10.222138147199999,0.014180800172453928,-0.001090830782496456,0.008726646259971648,-0.06753928375115989,0.00017453292519943296,-0.04789283636097722
0.430708068,-0.6125625856,10.222138147199999,0.008726646259971648,0.0,0.01090830782496456,-0.0685870783948432,0.0002181661564992912,-0.047997068716826345
0.430708068,-0.5742774239999999,10.2029955664,0.018544123302439753,0.002181661564992912,0.007635815477475192,-0.0643873214354836,0.00015271630954950385,-0.04790507234992488
0.430708068,-0.6029912951999999,10.212566856799999,0.015271630954950384,-0.002181661564992912,0.007635815477475192,-0.06762379573875642,0.00015271630954950385,-0.047916392251950206
0.430708068,-0.5742774239999999,10.212566856799999,0.016362461737446838,-0.001090830782496456,0.006544984694978736,-0.06439120495885887,0.00013089969389957473,-0.04790279120807083
0.42113677759999996,-0.5838487144,10.193424275999998,0.008726646259971648,0.0,0.01090830782496456,-0.06556296802372079,0.0002181661564992912,-0.04706770469700193
0.42113677759999996,-0.6029912951999999,10.193424275999998,0.009817477042468103,0.0,0.01090830782496456,-0.06770765301384102,0.0002181661564992912,-0.04704118355850388
0.430708068,-0.5838487144,10.193424275999998,0.013089969389957472,0.001090830782496456,0.008726646259971648,-0.06554158774038386,0.00017453292519943296,-0.04805453384165107
0.42113677759999996,-0.5934200047999999,10.212566856799999,0.013089969389957472,0.003272492347489368,0.007635815477475192,-0.06644660639253214,0.00015271630954950385,-0.04689149132240358
0.42113677759999996,-0.6125625856,10.212566856799999,0.015271630954950384,-0.002181661564992912,0.01090830782496456,-0.06869396563440372,0.0002181661564992912,-0.046843537023087634
0.430708068,-0.5838487144,10.193424275999998,0.007635815477475192,0.0,0.009817477042468103,-0.06556296802372079,0.00019634954084936208,-0.04816143525833572
0.430708068,-0.6125625856,10.1838529856,0.01090830782496456,-0.006544984694978736,0.008726646259971648,-0.06897258741796918,0.00017453292519943296,-0.048134526027371435
0.430708068,-0.5934200047999999,10.222138147199999,0.018544123302439753,0.001090830782496456,0.017453292519943295,-0.06642723055328803,0.00034906585039886593,-0.047809942689321525
0.4498506487999999,-0.6125625856,10.193424275999998,0.015271630954950384,0.0,0.01090830782496456,-0.06877981839257907,0.0002181661564992912,-0.050147917191395205
0.4498506487999999,-0.5934200047999999,10.193424275999998,0.007635815477475192,-0.003272492347489368,0.007635815477475192,-0.06669950978809304,0.00015271630954950385,-0.050303156859521934
0.4498506487999999,-0.5838487144,10.2029955664,0.01090830782496456,0.001090830782496456,0.007635815477475192,-0.06548021796349923,0.00015271630954950385,-0.05019462289015034
0.42113677759999996,-0.5742774239999999,10.2029955664,0.006544984694978736,-0.001090830782496456,0.009817477042468103,-0.06445146228549439,0.00019634954084936208,-0.047068847721768024
0.44027935839999993,-0.5934200047999999,10.193424275999998,0.011999138607461015,0.002181661564992912,0.01090830782496456,-0.06659260837140839,0.0002181661564992912,-0.049145514352824576
0.41156548719999997,-0.5934200047999999,10.2029955664,0.014180800172453928,-0.002181661564992912,0.007635815477475192,-0.06661576040109836,0.00015271630954950385,-0.04584276510018386
0.430708068,-0.6029912951999999,10.212566856799999,0.018544123302439753,0.0,0.013089969389957472,-0.06758103517208255,0.00026179938779914946,-0.04785225140193942
0.44027935839999993,-0.5934200047999999,10.222138147199999,0.008726646259971648,-0.002181661564992912,0.007635815477475192,-0.06649137140329882,0.00015271630954950385,-0.0490715822901417
0.430708068,-0.5934200047999999,10.2029955664,0.011999138607461015,0.002181661564992912,0.013089969389957472,-0.06653023926775063,0.00026179938779914946,-0.04802819520564458
0.430708068,-0.5934200047999999,10.193424275999998,0.015271630954950384,-0.003272492347489368,0.009817477042468103,-0.06669950978809304,0.00019634954084936208,-0.04800916561798722
0.42113677759999996,-0.5838487144,10.222138147199999,0.006544984694978736,0.0,0.008726646259971648,-0.06537920234426468,0.00017453292519943296,-0.04697835339334813
0.41156548719999997,-0.5934200047999999,10.1838529856,0.016362461737446838,0.001090830782496456,0.008726646259971648,-0.06667647459720973,0.00017453292519943296,-0.04588631096410252
0.44027935839999993,-0.6029912951999999,10.212566856799999,0.01090830782496456,-0.004363323129985824,0.014180800172453928,-0.06766655630543028,0.0002836160034490786,-0.04907206719418521
0.430708068,-0.6029912951999999,10.2029955664,0.019634954084936207,0.0,0.014180800172453928,-0.06764428491043967,0.0002836160034490786,-0.047875891012390585
0.430708068,-0.5934200047999999,10.2029955664,0.013089969389957472,0.0,0.007635815477475192,-0.0665729998344245,0.00015271630954950385,-0.04800681492230765
0.430708068,-0.5838487144,10.222138147199999,0.011999138607461015,-0.002181661564992912,0.01090830782496456,-0.06542196291093855,0.0002181661564992912,-0.047940810231372255
0.44027935839999993,-0.6029912951999999,10.222138147199999,0.002181661564992912,-0.003272492347489368,0.013089969389957472,-0.06758204431783375,0.00026179938779914946,-0.04919717835358768
0.44027935839999993,-0.5934200047999999,10.2029955664,0.01090830782496456,-0.003272492347489368,0.007635815477475192,-0.06663714068443528,0.00015271630954950385,-0.04912078457828927
0.430708068,-0.5934200047999999,10.212566856799999,0.015271630954950384,0.0,0.007635815477475192,-0.06651074724254293,0.00015271630954950385,-0.04791902707400124
0.44027935839999993,-0.6029912951999999,10.2029955664,0.01090830782496456,0.002181661564992912,0.01090830782496456,-0.0676015243437658,0.0002181661564992912,-0.04911808386776965
0.430708068,-0.5934200047999999,10.2029955664,0.013089969389957472,0.002181661564992912,0.008726646259971648,-0.06653023926775063,0.00017453292519943296,-0.04800681492230765
0.430708068,-0.5934200047999999,10.193424275999998,0.014180800172453928,-0.002181661564992912,0.007635815477475192,-0.06667812950475611,0.00015271630954950385,-0.048030545901324155
0.430708068,-0.5934200047999999,10.222138147199999,0.01090830782496456,-0.002181661564992912,0.008726646259971648,-0.06649137140329882,0.00017453292519943296,-0.04795960467268004
0.4498506487999999,-0.6125625856,10.2029955664,0.015271630954950384,-0.001090830782496456,0.008726646259971648,-0.06873683190495371,0.00017453292519943296,-0.05010082418744615
0.42113677759999996,-0.6125625856,10.212566856799999,0.00545415391248228,-0.003272492347489368,0.01090830782496456,-0.06871534591774064,0.0002181661564992912,-0.04703595957312001
0.4498506487999999,-0.5838487144,10.2029955664,0.013089969389957472,0.004363323129985824,0.009817477042468103,-0.06541607711348843,0.00019634954084936208,-0.05015186232347647
0.42113677759999996,-0.5838487144,10.193424275999998,0.007635815477475192,0.002181661564992912,0.009817477042468103,-0.06552020745704693,0.00019634954084936208,-0.04708908498033886
0.430708068,-0.5838487144,10.193424275999998,0.007635815477475192,0.0,0.008726646259971648,-0.06556296802372079,0.00017453292519943296,-0.04816143525833572
0.42113677759999996,-0.5934200047999999,10.212566856799999,0.008726646259971648,-0.004363323129985824,0.01090830782496456,-0.06659626837589065,0.0002181661564992912,-0.0469770124557513
0.44027935839999993,-0.6029912951999999,10.193424275999998,0.014180800172453928,0.0,0.009817477042468103,-0.06770765301384102,0.00019634954084936208,-0.04910004549639201
0.41156548719999997,-0.6029912951999999,10.193424275999998,0.01090830782496456,0.004363323129985824,0.01090830782496456,-0.06762213188049329,0.0002181661564992912,-0.04594748666171559
0.44027935839999993,-0.5934200047999999,10.193424275999998,0.011999138607461015,-0.003272492347489368,0.009817477042468103,-0.06669950978809304,0.00019634954084936208,-0.049145514352824576
0.41156548719999997,-0.5934200047999999,10.212566856799999,0.014180800172453928,-0.001090830782496456,0.007635815477475192,-0.06653212752587985,0.00015271630954950385,-0.04579973240654643
0.41156548719999997,-0.5742774239999999,10.222138147199999,0.011999138607461015,0.0,0.01090830782496456,-0.06430967983496426,0.0002181661564992912,-0.04580444312404821
0.42113677759999996,-0.5934200047999999,10.212566856799999,0.013089969389957472,-0.003272492347489368,0.008726646259971648,-0.06657488809255371,0.00017453292519943296,-0.04689149132240358
0.4498506487999999,-0.6029912951999999,10.193424275999998,0.013089969389957472,0.003272492347489368,0.009817477042468103,-0.06764351216383023,0.00019634954084936208,-0.05019348850288933
0.430708068,-0.6029912951999999,10.1838529856,0.011999138607461015,-0.002181661564992912,0.009817477042468103,-0.067813900381144,0.00019634954084936208,-0.0481158448771438
0.44027935839999993,-0.5934200047999999,10.212566856799999,0.011999138607461015,-0.003272492347489368,0.007635815477475192,-0.06657488809255371,0.00015271630954950385,-0.04905338007035056
0.430708068,-0.6221338759999999,10.2029955664,0.015271630954950384,0.0,0.00545415391248228,-0.06978649811592787,0.0001090830782496456,-0.04795600225401411
0.41156548719999997,-0.5934200047999999,10.2029955664,0.011999138607461015,0.002181661564992912,0.015271630954950384,-0.06653023926775063,0.0003054326190990077,-0.045885525666857725
0.44027935839999993,-0.6029912951999999,10.212566856799999,0.013089969389957472,0.001090830782496456,0.009817477042468103,-0.06755965488874563,0.00019634954084936208,-0.04902930662751134
0.44027935839999993,-0.6125625856,10.212566856799999,0.018544123302439753,-0.002181661564992912,0.013089969389957472,-0.06869396563440372,0.00026179938779914946,-0.04891966941284219
0.4498506487999999,-0.5838487144,10.2029955664,0.014180800172453928,-0.003272492347489368,0.011999138607461015,-0.06556573909684695,0.00023998277214922032,-0.05013048204013954
0.42113677759999996,-0.6029912951999999,10.212566856799999,0.014180800172453928,0.002181661564992912,0.00545415391248228,-0.06753827460540869,0.0001090830782496456,-0.04686753456824817
0.42113677759999996,-0.6125625856,10.2317094376,0.019634954084936207,-0.003272492347489368,0.008726646259971648,-0.0685872121181425,0.00017453292519943296,-0.04667023011542079
0.42113677759999996,-0.5838487144,10.222138147199999,0.009817477042468103,0.001090830782496456,0.008726646259971648,-0.06535782206092776,0.00017453292519943296,-0.046914212543337344
0.44027935839999993,-0.5934200047999999,10.212566856799999,0.014180800172453928,0.002181661564992912,0.004363323129985824,-0.06646798667586906,8.726646259971648e-05,-0.049010619503676696
0.430708068,-0.6125625856,10.2029955664,0.007635815477475192,0.002181661564992912,0.01090830782496456,-0.06867269105494292,0.0002181661564992912,-0.04810839008821261
0.430708068,-0.5838487144,10.193424275999998,0.011999138607461015,0.003272492347489368,0.007635815477475192,-0.06549882717371,0.00015271630954950385,-0.048075914124988
0.4498506487999999,-0.6125625856,10.212566856799999,0.011999138607461015,0.0,0.009817477042468103,-0.06865120506772986,0.00019634954084936208,-0.050117959660320906
0.4498506487999999,-0.5838487144,10.222138147199999,0.007635815477475192,-0.001090830782496456,0.01090830782496456,-0.06540058262760161,0.0002181661564992912,-0.05016479417049689
0.430708068,-0.5934200047999999,10.193424275999998,0.011999138607461015,0.0,0.00545415391248228,-0.06663536893808225,0.0001090830782496456,-0.04807330646799802
0.430708068,-0.5934200047999999,10.193424275999998,0.011999138607461015,0.001090830782496456,0.009817477042468103,-0.06661398865474533,0.00019634954084936208,-0.04807330646799802
0.41156548719999997,-0.5838487144,10.212566856799999,0.015271630954950384,0.003272492347489368,0.008726646259971648,-0.06537620227723091,0.00017453292519943296,-0.0457808303426666
0.4019941968,-0.5838487144,10.193424275999998,0.015271630954950384,-0.001090830782496456,0.008726646259971648,-0.06558434830705771,0.00017453292519943296,-0.0447944759413193
0.42113677759999996,-0.5934200047999999,10.212566856799999,0.011999138607461015,0.003272492347489368,0.008726646259971648,-0.06644660639253214,0.00017453292519943296,-0.046912871605740515
0.4498506487999999,-0.6029912951999999,10.212566856799999,0.008726646259971648,-0.001090830782496456,0.006544984694978736,-0.06760241545541948,0.00013089969389957473,-0.05018489555509241
0.42113677759999996,-0.6029912951999999,10.193424275999998,0.013089969389957472,0.001090830782496456,0.009817477042468103,-0.0676862727305041,0.00019634954084936208,-0.04697704270849309
0.44027935839999993,-0.6125625856,10.222138147199999,0.016362461737446838,0.002181661564992912,0.006544984694978736,-0.06854431782816933,0.00013089969389957473,-0.048916506513414046
0.430708068,-0.5838487144,10.222138147199999,0.014180800172453928,-0.001090830782496456,0.01090830782496456,-0.06540058262760161,0.0002181661564992912,-0.04789804966469839
0.4498506487999999,-0.5838487144,10.222138147199999,0.016362461737446838,-0.002181661564992912,0.013089969389957472,-0.06542196291093855,0.00026179938779914946,-0.04999375190380145
0.4498506487999999,-0.5838487144,10.212566856799999,0.013089969389957472,0.004363323129985824,0.011999138607461015,-0.06535482199389397,0.00023998277214922032,-0.05010483380406758
0.41156548719999997,-0.6029912951999999,10.193424275999998,0.014180800172453928,0.001090830782496456,0.011999138607461015,-0.0676862727305041,0.00023998277214922032,-0.04588334581170479
0.44027935839999993,-0.5647061335999999,10.2029955664,0.009817477042468103,0.002181661564992912,0.01090830782496456,-0.06331569238939637,0.0002181661564992912,-0.04915001024004
0.44027935839999993,-0.6029912951999999,10.2029955664,0.011999138607461015,-0.002181661564992912,0.006544984694978736,-0.06768704547711353,0.00013089969389957473,-0.049096703584432716
0.430708068,-0.5934200047999999,10.2029955664,0.01090830782496456,-0.002181661564992912,0.01090830782496456,-0.06661576040109836,0.0002181661564992912,-0.04804957548898151
0.430708068,-0.6029912951999999,10.2029955664,0.014180800172453928,-0.002181661564992912,0.006544984694978736,-0.06768704547711353,0.00013089969389957473,-0.04798279242907524
0.44027935839999993,-0.5838487144,10.193424275999998,0.009817477042468103,0.002181661564992912,0.008726646259971648,-0.06552020745704693,0.00017453292519943296,-0.049190940311663836
0.430708068,-0.5838487144,10.193424275999998,0.018544123302439753,0.0,0.011999138607461015,-0.06556296802372079,0.00023998277214922032,-0.04794763242496642
0.42113677759999996,-0.5838487144,10.193424275999998,0.013089969389957472,-0.002181661564992912,0.015271630954950384,-0.06560572859039465,0.0003054326190990077,-0.04698218356365421
0.44027935839999993,-0.5934200047999999,10.2029955664,0.008726646259971648,0.001090830782496456,0.006544984694978736,-0.06655161955108757,0.00013089969389957473,-0.04916354514496313
0.44027935839999993,-0.5934200047999999,10.212566856799999,0.015271630954950384,0.003272492347489368,0.003272492347489368,-0.06644660639253214,6.544984694978737e-05,-0.048989239220339764
0.42113677759999996,-0.6125625856,10.222138147199999,0.013089969389957472,0.0,0.01090830782496456,-0.0685870783948432,0.0002181661564992912,-0.046842363894118985
0.42113677759999996,-0.5838487144,10.212566856799999,0.017453292519943295,0.001090830782496456,0.007635815477475192,-0.06541896284390478,0.00015271630954950385,-0.04680850584870965
0.430708068,-0.5838487144,10.2317094376,0.014180800172453928,0.001090830782496456,0.009817477042468103,-0.0652967952950888,0.00019634954084936208,-0.04785318242647684
0.42113677759999996,-0.6125625856,10.193424275999998,0.02181661564992912,0.001090830782496456,0.009817477042468103,-0.06875843810924215,0.00019634954084936208,-0.04680336847619254
0.42113677759999996,-0.6125625856,10.222138147199999,0.017453292519943295,-0.001090830782496456,0.007635815477475192,-0.06860845867818012,0.00015271630954950385,-0.046756842760771265
0.430708068,-0.6029912951999999,10.2029955664,0.017453292519943295,0.002181661564992912,0.006544984694978736,-0.0676015243437658,0.00013089969389957473,-0.04791865157906445
0.430708068,-0.6029912951999999,10.193424275999998,0.01090830782496456,-0.00545415391248228,0.007635815477475192,-0.06781455443052567,0.00015271630954950385,-0.0480920371259813
0.430708068,-0.6029912951999999,10.2029955664,0.01090830782496456,-0.001090830782496456,0.008726646259971648,-0.06766566519377659,0.00017453292519943296,-0.04804693327908603
0.44027935839999993,-0.5838487144,10.212566856799999,0.008726646259971648,-0.003272492347489368,0.011999138607461015,-0.06550448397725249,0.00023998277214922032,-0.04912017142031104
0.44027935839999993,-0.5934200047999999,10.212566856799999,0.008726646259971648,0.001090830782496456,0.011999138607461015,-0.066489366959206,0.00023998277214922032,-0.04911752092036135
0.430708068,-0.6125625856,10.193424275999998,0.01090830782496456,0.001090830782496456,0.006544984694978736,-0.06875843810924215,0.00013089969389957473,-0.04808934555307199
0.44027935839999993,-0.5838487144,10.222138147199999,0.01090830782496456,0.001090830782496456,0.009817477042468103,-0.06535782206092776,0.00019634954084936208,-0.049031464818852885
0.42113677759999996,-0.5934200047999999,10.193424275999998,0.013089969389957472,0.0,0.007635815477475192,-0.06663536893808225,0.00015271630954950385,-0.04697963365553124
0.42113677759999996,-0.5838487144,10.2029955664,0.011999138607461015,0.003272492347489368,0.009817477042468103,-0.06543745739682537,0.00019634954084936208,-0.04695944447925496
0.4498506487999999,-0.5838487144,10.212566856799999,0.01090830782496456,-0.002181661564992912,0.01090830782496456,-0.06548310369391556,0.0002181661564992912,-0.05014759437074144
0.430708068,-0.5934200047999999,10.2508520184,0.014180800172453928,-0.002181661564992912,0.01090830782496456,-0.06630565606135219,0.0002181661564992912,-0.047761133375818804
0.430708068,-0.5934200047999999,10.193424275999998,0.015271630954950384,0.0,0.006544984694978736,-0.06663536893808225,0.00013089969389957473,-0.04800916561798722
0.44027935839999993,-0.5934200047999999,10.2029955664,0.014180800172453928,-0.006544984694978736,0.013089969389957472,-0.06670128153444607,0.00026179938779914946,-0.049056643728278476
0.44027935839999993,-0.5934200047999999,10.193424275999998,0.014180800172453928,0.001090830782496456,0.008726646259971648,-0.06661398865474533,0.00017453292519943296,-0.04910275378615071
0.4498506487999999,-0.5934200047999999,10.212566856799999,0.014180800172453928,0.001090830782496456,0.008726646259971648,-0.066489366959206,0.00017453292519943296,-0.05008074562127746
0.430708068,-0.5742774239999999,10.212566856799999,0.015271630954950384,0.0,0.013089969389957472,-0.06436982467552195,0.00026179938779914946,-0.047924171491407756
0.430708068,-0.5838487144,10.2029955664,0.016362461737446838,0.0,0.016362461737446838,-0.06550159824683616,0.00032724923474893676,-0.047945274430492346
0.44027935839999993,-0.5838487144,10.1838529856,0.014180800172453928,0.002181661564992912,0.01090830782496456,-0.06558169221309339,0.0002181661564992912,-0.04915162279714462
0.44027935839999993,-0.6029912951999999,10.2029955664,0.013089969389957472,-0.003272492347489368,0.009817477042468103,-0.06770842576045046,0.00019634954084936208,-0.049075323301095784
0.42113677759999996,-0.6029912951999999,10.212566856799999,0.015271630954950384,-0.003272492347489368,0.008726646259971648,-0.06764517602209334,0.00017453292519943296,-0.04684615428491124
0.44027935839999993,-0.6125625856,10.2317094376,0.008726646259971648,-0.003272492347489368,0.008726646259971648,-0.0685872121181425,0.00017453292519943296,-0.049020330330691746
0.430708068,-0.5934200047999999,10.222138147199999,0.011999138607461015,0.002181661564992912,0.01090830782496456,-0.06640585026995109,0.0002181661564992912,-0.04793822438934311
0.44027935839999993,-0.5934200047999999,10.2029955664,0.014180800172453928,-0.003272492347489368,0.006544984694978736,-0.06663714068443528,0.00013089969389957473,-0.049056643728278476
0.44027935839999993,-0.6029912951999999,10.222138147199999,0.008726646259971648,-0.001090830782496456,0.01090830782496456,-0.06753928375115989,0.0002181661564992912,-0.0490688966535661
0.4498506487999999,-0.5742774239999999,10.222138147199999,0.013089969389957472,-0.002181661564992912,0.008726646259971648,-0.06435244040163812,0.00017453292519943296,-0.050060549605165344
0.44027935839999993,-0.5934200047999999,10.222138147199999,0.017453292519943295,0.0,0.013089969389957472,-0.06644861083662496,0.00026179938779914946,-0.04890054002344626
0.44027935839999993,-0.5934200047999999,10.193424275999998,0.013089969389957472,0.003272492347489368,0.007635815477475192,-0.06657122808807146,0.00015271630954950385,-0.049124134069487645
0.430708068,-0.5838487144,10.212566856799999,0.017453292519943295,-0.004363323129985824,0.013089969389957472,-0.06552586426058943,0.00026179938779914946,-0.04787885959391137
0.42113677759999996,-0.5934200047999999,10.193424275999998,0.019634954084936207,0.0,0.011999138607461015,-0.06663536893808225,0.00023998277214922032,-0.04685135195550966
0.44027935839999993,-0.5934200047999999,10.2029955664,0.014180800172453928,0.0,0.01090830782496456,-0.0665729998344245,0.0002181661564992912,-0.049056643728278476
0.430708068,-0.6029912951999999,10.2029955664,0.01090830782496456,0.003272492347489368,0.008726646259971648,-0.06758014406042888,0.00017453292519943296,-0.04804693327908603
0.42113677759999996,-0.5934200047999999,10.193424275999998,0.013089969389957472,0.002181661564992912,0.008726646259971648,-0.06659260837140839,0.00017453292519943296,-0.04697963365553124
0.430708068,-0.6221338759999999,10.193424275999998,0.008726646259971648,-0.001090830782496456,0.006544984694978736,-0.06987324350045805,0.00013089969389957473,-0.04812937262041207
0.42113677759999996,-0.5934200047999999,10.2317094376,0.011999138607461015,0.001090830782496456,0.011999138607461015,-0.06636521000873347,0.00023998277214922032,-0.04682505686813585
0.430708068,-0.5934200047999999,10.1838529856,0.011999138607461015,0.002181661564992912,0.011999138607461015,-0.06665509431387279,0.00023998277214922032,-0.04811850194569831
0.4498506487999999,-0.5934200047999999,10.222138147199999,0.014180800172453928,-0.002181661564992912,0.008726646259971648,-0.06649137140329882,0.00017453292519943296,-0.0500338121355322
0.430708068,-0.5838487144,10.212566856799999,0.01090830782496456,0.0,0.01090830782496456,-0.0654403431272417,0.0002181661564992912,-0.04800714129393295
0.44027935839999993,-0.5934200047999999,10.193424275999998,0.009817477042468103,0.0,0.007635815477475192,-0.06663536893808225,0.00015271630954950385,-0.04918827491949844
0.44027935839999993,-0.6029912951999999,10.2029955664,0.016362461737446838,-0.002181661564992912,0.013089969389957472,-0.06768704547711353,0.00026179938779914946,-0.049011182451084996
0.430708068,-0.5934200047999999,10.193424275999998,0.006544984694978736,-0.001090830782496456,0.011999138607461015,-0.06665674922141918,0.00023998277214922032,-0.04818020788468267
0.44027935839999993,-0.6125625856,10.193424275999998,0.014180800172453928,0.003272492347489368,0.007635815477475192,-0.06871567754256828,0.00015271630954950385,-0.049097294330307614
0.44027935839999993,-0.5838487144,10.212566856799999,0.01090830782496456,0.001090830782496456,0.008726646259971648,-0.06541896284390478,0.00017453292519943296,-0.049077410853637184
0.44027935839999993,-0.5934200047999999,10.212566856799999,0.013089969389957472,0.002181661564992912,0.01090830782496456,-0.06646798667586906,0.0002181661564992912,-0.04903199978701363
0.430708068,-0.5934200047999999,10.193424275999998,0.011999138607461015,0.001090830782496456,0.01090830782496456,-0.06661398865474533,0.0002181661564992912,-0.04807330646799802
0.42113677759999996,-0.5838487144,10.212566856799999,0.015271630954950384,-0.001090830782496456,0.007635815477475192,-0.06546172341057863,0.00015271630954950385,-0.04685126641538351
0.44027935839999993,-0.6029912951999999,10.2029955664,0.013089969389957472,0.0,0.013089969389957472,-0.06764428491043967,0.00026179938779914946,-0.049075323301095784
0.430708068,-0.5838487144,10.212566856799999,0.014180800172453928,0.0,0.01090830782496456,-0.0654403431272417,0.0002181661564992912,-0.047943000443922155
0.42113677759999996,-0.5934200047999999,10.1838529856,0.017453292519943295,0.0,0.011999138607461015,-0.06669785488054665,0.00023998277214922032,-0.04693830710915637
0.42113677759999996,-0.5934200047999999,10.212566856799999,0.01090830782496456,0.003272492347489368,0.008726646259971648,-0.06644660639253214,0.00017453292519943296,-0.04693425188907745
0.44027935839999993,-0.5934200047999999,10.2029955664,0.018544123302439753,-0.003272492347489368,0.008726646259971648,-0.06663714068443528,0.00017453292519943296,-0.048971122594930756
0.41156548719999997,-0.6029912951999999,10.212566856799999,0.008726646259971648,-0.006544984694978736,0.00545415391248228,-0.06770931687210413,0.0001090830782496456,-0.045904115717123724
0.430708068,-0.5934200047999999,10.2029955664,0.011999138607461015,0.0,0.008726646259971648,-0.0665729998344245,0.00017453292519943296,-0.04802819520564458
0.42113677759999996,-0.6029912951999999,10.1742816952,0.01090830782496456,0.004363323129985824,0.00545415391248228,-0.06774922451240568,0.0001090830782496456,-0.04710826045145525
0.41156548719999997,-0.5934200047999999,10.212566856799999,0.013089969389957472,-0.001090830782496456,0.008726646259971648,-0.06653212752587985,0.00017453292519943296,-0.04582111268988336
0.42113677759999996,-0.5934200047999999,10.212566856799999,0.014180800172453928,0.0,0.007635815477475192,-0.06651074724254293,0.00015271630954950385,-0.04687011103906665
0.4498506487999999,-0.5934200047999999,10.2317094376,0.017453292519943295,0.002181661564992912,0.004363323129985824,-0.06634382972539653,8.726646259971648e-05,-0.04992282499756915
0.42113677759999996,-0.5934200047999999,10.212566856799999,0.008726646259971648,-0.002181661564992912,0.01090830782496456,-0.06655350780921679,0.0002181661564992912,-0.0469770124557513
0.4498506487999999,-0.6029912951999999,10.193424275999998,0.01090830782496456,-0.003272492347489368,0.013089969389957472,-0.0677717938638518,0.00026179938779914946,-0.05023624906956319
0.430708068,-0.5934200047999999,10.222138147199999,0.01090830782496456,0.004363323129985824,0.013089969389957472,-0.06636308970327723,0.00026179938779914946,-0.04795960467268004
0.44027935839999993,-0.5934200047999999,10.2029955664,0.01090830782496456,-0.006544984694978736,0.009817477042468103,-0.06670128153444607,0.00019634954084936208,-0.04912078457828927
0.430708068,-0.6029912951999999,10.212566856799999,0.014180800172453928,-0.001090830782496456,0.007635815477475192,-0.06760241545541948,0.00015271630954950385,-0.04793777253528714
0.44027935839999993,-0.5934200047999999,10.2029955664,0.016362461737446838,-0.004363323129985824,0.008726646259971648,-0.06665852096777222,0.00017453292519943296,-0.04901388316160462
0.42113677759999996,-0.6125625856,10.2029955664,0.014180800172453928,0.0,0.007635815477475192,-0.06871545162161678,0.00015271630954950385,-0.04690893284655779
0.41156548719999997,-0.6029912951999999,10.222138147199999,0.014180800172453928,-0.001090830782496456,0.008726646259971648,-0.06753928375115989,0.00017453292519943296,-0.04575426869135283
0.430708068,-0.5742774239999999,10.222138147199999,0.020725784867432664,-0.001090830782496456,0.00545415391248228,-0.06433106011830118,0.0001090830782496456,-0.04777231216684289
0.430708068,-0.5934200047999999,10.212566856799999,0.009817477042468103,-0.002181661564992912,0.009817477042468103,-0.06655350780921679,0.00019634954084936208,-0.0480259284906859
0.430708068,-0.5934200047999999,10.193424275999998,0.014180800172453928,0.001090830782496456,0.011999138607461015,-0.06661398865474533,0.00023998277214922032,-0.048030545901324155
0.430708068,-0.5934200047999999,10.2029955664,0.01090830782496456,-0.001090830782496456,0.007635815477475192,-0.06659438011776142,0.00015271630954950385,-0.04804957548898151
0.42113677759999996,-0.6125625856,10.212566856799999,0.016362461737446838,0.002181661564992912,0.01090830782496456,-0.06860844450105599,0.0002181661564992912,-0.04682215673975071
0.430708068,-0.5838487144,10.2029955664,0.013089969389957472,-0.003272492347489368,0.008726646259971648,-0.06556573909684695,0.00017453292519943296,-0.048009415280503134
0.42113677759999996,-0.6125625856,10.2029955664,0.018544123302439753,-0.002181661564992912,0.006544984694978736,-0.06875821218829065,0.00013089969389957473,-0.04682341171321007
0.430708068,-0.5934200047999999,10.193424275999998,0.011999138607461015,0.002181661564992912,0.008726646259971648,-0.06659260837140839,0.00017453292519943296,-0.04807330646799802
0.430708068,-0.6125625856,10.2029955664,0.009817477042468103,0.0,0.009817477042468103,-0.06871545162161678,0.00019634954084936208,-0.048065629521538755
0.430708068,-0.6029912951999999,10.212566856799999,0.008726646259971648,0.001090830782496456,0.007635815477475192,-0.06755965488874563,0.00015271630954950385,-0.04804467395197179
0.42113677759999996,-0.6029912951999999,10.2029955664,0.00545415391248228,0.001090830782496456,0.011999138607461015,-0.06762290462710274,0.00023998277214922032,-0.04708259971325457
0.42113677759999996,-0.5838487144,10.193424275999998,0.015271630954950384,0.003272492347489368,0.006544984694978736,-0.06549882717371,0.00013089969389957473,-0.04693942299698035
0.44027935839999993,-0.5934200047999999,10.193424275999998,0.013089969389957472,0.002181661564992912,0.008726646259971648,-0.06659260837140839,0.00017453292519943296,-0.049124134069487645
0.41156548719999997,-0.6029912951999999,10.1838529856,0.015271630954950384,0.003272492347489368,0.008726646259971648,-0.06770699896445935,0.00017453292519943296,-0.04590515187809818
0.42113677759999996,-0.5838487144,10.1838529856,0.015271630954950384,-0.004363323129985824,0.007635815477475192,-0.06570997391311498,0.00015271630954950385,-0.04698362474818811
0.41156548719999997,-0.5934200047999999,10.193424275999998,0.009817477042468103,0.003272492347489368,0.015271630954950384,-0.06657122808807146,0.0003054326190990077,-0.04597139920017033
0.42113677759999996,-0.5838487144,10.193424275999998,0.009817477042468103,-0.001090830782496456,0.009817477042468103,-0.06558434830705771,0.00019634954084936208,-0.047046324413665006
0.44027935839999993,-0.5934200047999999,10.193424275999998,0.011999138607461015,0.001090830782496456,0.009817477042468103,-0.06661398865474533,0.00019634954084936208,-0.049145514352824576
0.44027935839999993,-0.5838487144,10.193424275999998,0.014180800172453928,0.001090830782496456,0.01090830782496456,-0.06554158774038386,0.0002181661564992912,-0.04910541917831611
0.44027935839999993,-0.5742774239999999,10.193424275999998,0.014180800172453928,-0.002181661564992912,0.007635815477475192,-0.06453321269707207,0.00015271630954950385,-0.04910804165195137
0.430708068,-0.6029912951999999,10.2029955664,0.017453292519943295,0.001090830782496456,0.01090830782496456,-0.06762290462710274,0.0002181661564992912,-0.04791865157906445
0.41156548719999997,-0.5838487144,10.2029955664,0.016362461737446838,0.0,0.009817477042468103,-0.06550159824683616,0.00019634954084936208,-0.045802489703178705
0.4498506487999999,-0.6125625856,10.1838529856,0.011999138607461015,0.003272492347489368,0.01090830782496456,-0.06878016486793681,0.0002181661564992912,-0.05025923891681846
0.44027935839999993,-0.6029912951999999,10.2029955664,0.011999138607461015,-0.002181661564992912,0.007635815477475192,-0.06768704547711353,0.00015271630954950385,-0.049096703584432716
0.430708068,-0.5838487144,10.212566856799999,0.013089969389957472,-0.001090830782496456,0.009817477042468103,-0.06546172341057863,0.00019634954084936208,-0.04796438072725909
0.430708068,-0.5934200047999999,10.2029955664,0.01090830782496456,0.003272492347489368,0.01090830782496456,-0.06650885898441371,0.0002181661564992912,-0.04804957548898151
0.42113677759999996,-0.5934200047999999,10.193424275999998,0.009817477042468103,-0.002181661564992912,0.009817477042468103,-0.06667812950475611,0.00019634954084936208,-0.047043774505542035
0.42113677759999996,-0.5934200047999999,10.222138147199999,0.01090830782496456,0.006544984694978736,0.007635815477475192,-0.06632032913660338,0.00015271630954950385,-0.04689030368482861
0.430708068,-0.5838487144,10.2029955664,0.008726646259971648,0.003272492347489368,0.007635815477475192,-0.06543745739682537,0.00015271630954950385,-0.048094936413850854
0.4498506487999999,-0.5934200047999999,10.2029955664,0.01090830782496456,-0.003272492347489368,0.009817477042468103,-0.06663714068443528,0.00019634954084936208,-0.050191907397939245
0.42113677759999996,-0.5934200047999999,10.193424275999998,0.008726646259971648,0.0,0.00545415391248228,-0.06663536893808225,0.0001090830782496456,-0.04706515478887896
0.42113677759999996,-0.5838487144,10.2029955664,0.013089969389957472,-0.001090830782496456,0.007635815477475192,-0.06552297853017308,0.00015271630954950385,-0.046938064195918026
0.4498506487999999,-0.5934200047999999,10.2317094376,0.013089969389957472,-0.002181661564992912,0.007635815477475192,-0.06642935085874425,0.00015271630954950385,-0.05000834613091687
0.44027935839999993,-0.5934200047999999,10.212566856799999,0.014180800172453928,-0.003272492347489368,0.008726646259971648,-0.06657488809255371,0.00017453292519943296,-0.049010619503676696
0.430708068,-0.6029912951999999,10.222138147199999,0.011999138607461015,-0.001090830782496456,0.007635815477475192,-0.06753928375115989,0.00015271630954950385,-0.047935596927651085
0.41156548719999997,-0.6029912951999999,10.2029955664,0.014180800172453928,-0.001090830782496456,0.01090830782496456,-0.06766566519377659,0.0002181661564992912,-0.04584023993276958
0.44027935839999993,-0.5838487144,10.2029955664,0.014180800172453928,0.001090830782496456,0.007635815477475192,-0.06548021796349923,0.00015271630954950385,-0.04905930166044526
0.430708068,-0.5934200047999999,10.1838529856,0.015271630954950384,-0.002181661564992912,0.007635815477475192,-0.06674061544722051,0.00015271630954950385,-0.04805436109568752
0.41156548719999997,-0.6029912951999999,10.1838529856,0.015271630954950384,-0.00545415391248228,0.009817477042468103,-0.06787804123115479,0.00019634954084936208,-0.04590515187809818
0.430708068,-0.5934200047999999,10.193424275999998,0.009817477042468103,0.0,0.006544984694978736,-0.06663536893808225,0.00013089969389957473,-0.04811606703467188
0.44027935839999993,-0.5934200047999999,10.2029955664,0.00545415391248228,-0.001090830782496456,0.007635815477475192,-0.06659438011776142,0.00015271630954950385,-0.04922768599497392
0.42113677759999996,-0.5934200047999999,10.2029955664,0.011999138607461015,-0.003272492347489368,0.011999138607461015,-0.06663714068443528,0.00023998277214922032,-0.04695690170865862
0.430708068,-0.6125625856,10.193424275999998,0.017453292519943295,0.001090830782496456,0.007635815477475192,-0.06875843810924215,0.00015271630954950385,-0.047961063853050406
0.44027935839999993,-0.5934200047999999,10.2029955664,0.015271630954950384,-0.001090830782496456,0.009817477042468103,-0.06659438011776142,0.00019634954084936208,-0.049035263444941544
0.44027935839999993,-0.5934200047999999,10.2029955664,0.007635815477475192,-0.001090830782496456,0.008726646259971648,-0.06659438011776142,0.00017453292519943296,-0.04918492542830006
0.42113677759999996,-0.6029912951999999,10.212566856799999,0.014180800172453928,0.0,0.006544984694978736,-0.06758103517208255,0.00013089969389957473,-0.04686753456824817
0.430708068,-0.6029912951999999,10.2029955664,0.008726646259971648,0.001090830782496456,0.013089969389957472,-0.06762290462710274,0.00026179938779914946,-0.04808969384575989
0.430708068,-0.6029912951999999,10.212566856799999,0.015271630954950384,-0.001090830782496456,0.007635815477475192,-0.06760241545541948,0.00015271630954950385,-0.047916392251950206
0.44027935839999993,-0.6029912951999999,10.212566856799999,0.015271630954950384,-0.001090830782496456,0.00545415391248228,-0.06760241545541948,0.0001090830782496456,-0.04898654606083748
0.42113677759999996,-0.6125625856,10.2029955664,0.007635815477475192,-0.002181661564992912,0.009817477042468103,-0.06875821218829065,0.00019634954084936208,-0.04703721454657937
0.41156548719999997,-0.6029912951999999,10.222138147199999,0.01090830782496456,-0.001090830782496456,0.013089969389957472,-0.06753928375115989,0.00026179938779914946,-0.045818409541363625
0.44027935839999993,-0.5934200047999999,10.2029955664,0.013089969389957472,-0.001090830782496456,0.011999138607461015,-0.06659438011776142,0.00023998277214922032,-0.04907802401161541
0.430708068,-0.6029912951999999,10.193424275999998,0.01090830782496456,-0.003272492347489368,0.007635815477475192,-0.0677717938638518,0.00015271630954950385,-0.0480920371259813
0.39242290639999994,-0.6125625856,10.2029955664,0.01090830782496456,-0.001090830782496456,0.007635815477475192,-0.06873683190495371,0.00015271630954950385,-0.0437590594198552
0.430708068,-0.5934200047999999,10.222138147199999,0.01090830782496456,0.001090830782496456,0.007635815477475192,-0.06642723055328803,0.00015271630954950385,-0.04795960467268004
0.44027935839999993,-0.5934200047999999,10.193424275999998,0.015271630954950384,0.003272492347489368,0.011999138607461015,-0.06657122808807146,0.00023998277214922032,-0.04908137350281378
0.430708068,-0.5838487144,10.193424275999998,0.01090830782496456,0.002181661564992912,0.009817477042468103,-0.06552020745704693,0.00019634954084936208,-0.048097294408324935
0.44027935839999993,-0.5934200047999999,10.212566856799999,0.015271630954950384,0.00545415391248228,0.008726646259971648,-0.06640384582585827,0.00017453292519943296,-0.048989239220339764
0.430708068,-0.6029912951999999,10.193424275999998,0.008726646259971648,-0.001090830782496456,0.007635815477475192,-0.06772903329717794,0.00015271630954950385,-0.048134797692655155
0.4498506487999999,-0.5934200047999999,10.2029955664,0.015271630954950384,0.003272492347489368,0.01090830782496456,-0.06650885898441371,0.0002181661564992912,-0.05010638626459152
0.44027935839999993,-0.5838487144,10.193424275999998,0.014180800172453928,0.002181661564992912,0.006544984694978736,-0.06552020745704693,0.00013089969389957473,-0.04910541917831611
0.4498506487999999,-0.5838487144,10.2029955664,0.013089969389957472,0.001090830782496456,0.007635815477475192,-0.06548021796349923,0.00015271630954950385,-0.05015186232347647
0.4498506487999999,-0.5934200047999999,10.222138147199999,0.013089969389957472,-0.004363323129985824,0.007635815477475192,-0.06653413196997268,0.00015271630954950385,-0.05005519241886913
0.42113677759999996,-0.6029912951999999,10.2029955664,0.011999138607461015,0.001090830782496456,0.01090830782496456,-0.06762290462710274,0.0002181661564992912,-0.046954318013232986
0.430708068,-0.6029912951999999,10.2029955664,0.014180800172453928,0.004363323129985824,0.011999138607461015,-0.06755876377709194,0.00023998277214922032,-0.04798279242907524
0.4498506487999999,-0.5838487144,10.212566856799999,0.011999138607461015,0.0,0.011999138607461015,-0.0654403431272417,0.00023998277214922032,-0.05012621408740451
0.4498506487999999,-0.5934200047999999,10.193424275999998,0.009817477042468103,-0.002181661564992912,0.008726646259971648,-0.06667812950475611,0.00017453292519943296,-0.05026039629284808
0.42113677759999996,-0.6029912951999999,10.222138147199999,0.011999138607461015,-0.001090830782496456,0.01090830782496456,-0.06753928375115989,0.0002181661564992912,-0.0468663541284005
0.42113677759999996,-0.5838487144,10.222138147199999,0.016362461737446838,-0.007635815477475192,0.009817477042468103,-0.0655288643276232,0.00019634954084936208,-0.04678593084331576
0.430708068,-0.5934200047999999,10.2029955664,0.014180800172453928,0.003272492347489368,0.011999138607461015,-0.06650885898441371,0.00023998277214922032,-0.04798543463897072
0.430708068,-0.5838487144,10.2029955664,0.016362461737446838,-0.001090830782496456,0.006544984694978736,-0.06552297853017308,0.00013089969389957473,-0.047945274430492346
0.44027935839999993,-0.5934200047999999,10.193424275999998,0.013089969389957472,0.001090830782496456,0.011999138607461015,-0.06661398865474533,0.00023998277214922032,-0.049124134069487645
0.41156548719999997,-0.6029912951999999,10.1838529856,0.014180800172453928,0.0,0.009817477042468103,-0.06777113981447014,0.00019634954084936208,-0.045926532161435114
0.44027935839999993,-0.6029912951999999,10.2029955664,0.014180800172453928,-0.004363323129985824,0.01090830782496456,-0.0677298060437874,0.0002181661564992912,-0.04905394301775885
0.44027935839999993,-0.6029912951999999,10.212566856799999,0.018544123302439753,0.0,0.014180800172453928,-0.06758103517208255,0.0002836160034490786,-0.04892240521082669
